%time,field.header.seq,field.header.stamp,field.header.frame_id,field.orientation.x,field.orientation.y,field.orientation.z,field.orientation.w,field.orientation_covariance0,field.orientation_covariance1,field.orientation_covariance2,field.orientation_covariance3,field.orientation_covariance4,field.orientation_covariance5,field.orientation_covariance6,field.orientation_covariance7,field.orientation_covariance8,field.angular_velocity.x,field.angular_velocity.y,field.angular_velocity.z,field.angular_velocity_covariance0,field.angular_velocity_covariance1,field.angular_velocity_covariance2,field.angular_velocity_covariance3,field.angular_velocity_covariance4,field.angular_velocity_covariance5,field.angular_velocity_covariance6,field.angular_velocity_covariance7,field.angular_velocity_covariance8,field.linear_acceleration.x,field.linear_acceleration.y,field.linear_acceleration.z,field.linear_acceleration_covariance0,field.linear_acceleration_covariance1,field.linear_acceleration_covariance2,field.linear_acceleration_covariance3,field.linear_acceleration_covariance4,field.linear_acceleration_covariance5,field.linear_acceleration_covariance6,field.linear_acceleration_covariance7,field.linear_acceleration_covariance8
1585289618071231770,8235,1585289618070095516,foot_imu_link,-0.196894288063,-0.156691685319,-0.639847576618,0.726137399673,0.0,0.0,0.0,0.0,0.0,0.0,0.0,0.0,0.0,0.000177114270627,-0.000948626431637,-0.00283697294071,0.01,0.0,0.0,0.0,0.01,0.0,0.0,0.0,0.01,-4.62442302704,0.804193854332,-8.40235900879,0.01,0.0,0.0,0.0,0.01,0.0,0.0,0.0,0.01
1585289618095137499,8236,1585289618094724173,foot_imu_link,-0.196909382939,-0.156717643142,-0.639851391315,0.726124286652,0.0,0.0,0.0,0.0,0.0,0.0,0.0,0.0,0.0,-0.00153245870024,-0.000816294399556,-0.000689159147441,0.01,0.0,0.0,0.0,0.01,0.0,0.0,0.0,0.01,-4.6213684082,0.793223977089,-8.43379116058,0.01,0.0,0.0,0.0,0.01,0.0,0.0,0.0,0.01
1585289618120271836,8237,1585289618119869581,foot_imu_link,-0.196916803718,-0.156734243035,-0.639854311943,0.72611618042,0.0,0.0,0.0,0.0,0.0,0.0,0.0,0.0,0.0,6.10817223787e-05,-0.00171914231032,-0.000649334862828,0.01,0.0,0.0,0.0,0.01,0.0,0.0,0.0,0.01,-4.61530017853,0.815832495689,-8.40850734711,0.01,0.0,0.0,0.0,0.01,0.0,0.0,0.0,0.01
1585289618145667313,8238,1585289618144924963,foot_imu_link,-0.196929588914,-0.156764179468,-0.639859437943,0.726101756096,0.0,0.0,0.0,0.0,0.0,0.0,0.0,0.0,0.0,0.000454279594123,-0.00240425392985,6.83031976223e-06,0.01,0.0,0.0,0.0,0.01,0.0,0.0,0.0,0.01,-4.60899305344,0.815179467201,-8.40420436859,0.01,0.0,0.0,0.0,0.01,0.0,0.0,0.0,0.01
1585289618170652144,8239,1585289618170015254,foot_imu_link,-0.19694070518,-0.156781673431,-0.639863491058,0.726091384888,0.0,0.0,0.0,0.0,0.0,0.0,0.0,0.0,0.0,-0.000533270649612,-0.00133346044458,-0.000241559930146,0.01,0.0,0.0,0.0,0.01,0.0,0.0,0.0,0.01,-4.61351633072,0.78935021162,-8.43603515625,0.01,0.0,0.0,0.0,0.01,0.0,0.0,0.0,0.01
1585289618195703622,8240,1585289618195006934,foot_imu_link,-0.196962058544,-0.156801626086,-0.639858782291,0.726085424423,0.0,0.0,0.0,0.0,0.0,0.0,0.0,0.0,0.0,-0.000674114562571,-0.00103513104841,0.000477011781186,0.01,0.0,0.0,0.0,0.01,0.0,0.0,0.0,0.01,-4.65497350693,0.826499164104,-8.43699645996,0.01,0.0,0.0,0.0,0.01,0.0,0.0,0.0,0.01
1585289618220961290,8241,1585289618220270823,foot_imu_link,-0.196964114904,-0.156796827912,-0.639867663383,0.726078033447,0.0,0.0,0.0,0.0,0.0,0.0,0.0,0.0,0.0,-0.00142727605999,0.000535138649866,-0.000317302532494,0.01,0.0,0.0,0.0,0.01,0.0,0.0,0.0,0.01,-4.61572313309,0.844024777412,-8.44487953186,0.01,0.0,0.0,0.0,0.01,0.0,0.0,0.0,0.01
1585289618245789345,8242,1585289618245113808,foot_imu_link,-0.196969300508,-0.156790733337,-0.639862239361,0.726082801819,0.0,0.0,0.0,0.0,0.0,0.0,0.0,0.0,0.0,-0.00164066627622,0.000415641698055,-0.000154113862664,0.01,0.0,0.0,0.0,0.01,0.0,0.0,0.0,0.01,-4.61448574066,0.827015817165,-8.43900299072,0.01,0.0,0.0,0.0,0.01,0.0,0.0,0.0,0.01
1585289618270578631,8243,1585289618269815250,foot_imu_link,-0.196966707706,-0.156772509217,-0.639860808849,0.726088583469,0.0,0.0,0.0,0.0,0.0,0.0,0.0,0.0,0.0,-0.00228459946811,-0.000231231562793,0.00100342137739,0.01,0.0,0.0,0.0,0.01,0.0,0.0,0.0,0.01,-4.61287212372,0.825075447559,-8.40339660645,0.01,0.0,0.0,0.0,0.01,0.0,0.0,0.0,0.01
1585289618295704926,8244,1585289618295067767,foot_imu_link,-0.196967884898,-0.156752824783,-0.639856338501,0.726096510887,0.0,0.0,0.0,0.0,0.0,0.0,0.0,0.0,0.0,-0.000860104337335,0.00194633519277,0.0015137582086,0.01,0.0,0.0,0.0,0.01,0.0,0.0,0.0,0.01,-4.62036418915,0.814802825451,-8.36612892151,0.01,0.0,0.0,0.0,0.01,0.0,0.0,0.0,0.01
1585289618320607185,8245,1585289618319829108,foot_imu_link,-0.196966320276,-0.156736001372,-0.63984978199,0.726106345654,0.0,0.0,0.0,0.0,0.0,0.0,0.0,0.0,0.0,-0.000298725441098,0.00220012408681,0.00103806750849,0.01,0.0,0.0,0.0,0.01,0.0,0.0,0.0,0.01,-4.62700796127,0.787702620029,-8.41563034058,0.01,0.0,0.0,0.0,0.01,0.0,0.0,0.0,0.01
1585289618345571643,8246,1585289618344738301,foot_imu_link,-0.196949899197,-0.156730026007,-0.639836072922,0.726124107838,0.0,0.0,0.0,0.0,0.0,0.0,0.0,0.0,0.0,-0.000980393029749,0.00122930749785,0.00155911408365,0.01,0.0,0.0,0.0,0.01,0.0,0.0,0.0,0.01,-4.61982727051,0.82892370224,-8.40818023682,0.01,0.0,0.0,0.0,0.01,0.0,0.0,0.0,0.01
1585289618370389729,8247,1585289618369699519,foot_imu_link,-0.196937158704,-0.156713232398,-0.639834403992,0.726132750511,0.0,0.0,0.0,0.0,0.0,0.0,0.0,0.0,0.0,-0.000701171346009,0.00218119984493,0.0013761674054,0.01,0.0,0.0,0.0,0.01,0.0,0.0,0.0,0.01,-4.62893819809,0.802538275719,-8.42531394958,0.01,0.0,0.0,0.0,0.01,0.0,0.0,0.0,0.01
1585289618396803594,8248,1585289618394891312,foot_imu_link,-0.196921765804,-0.156701937318,-0.639840185642,0.726134240627,0.0,0.0,0.0,0.0,0.0,0.0,0.0,0.0,0.0,6.63101673126e-05,0.00167745701037,1.79423950613e-05,0.01,0.0,0.0,0.0,0.01,0.0,0.0,0.0,0.01,-4.63887071609,0.808948993683,-8.44523620605,0.01,0.0,0.0,0.0,0.01,0.0,0.0,0.0,0.01
1585289618420572380,8249,1585289618419864647,foot_imu_link,-0.196908682585,-0.156689703465,-0.639838755131,0.726141691208,0.0,0.0,0.0,0.0,0.0,0.0,0.0,0.0,0.0,-0.000740862451494,0.000592445605434,0.00120194628835,0.01,0.0,0.0,0.0,0.01,0.0,0.0,0.0,0.01,-4.60454034805,0.810674071312,-8.40090847015,0.01,0.0,0.0,0.0,0.01,0.0,0.0,0.0,0.01
1585289618444562397,8250,1585289618444323187,foot_imu_link,-0.196891739964,-0.156663924456,-0.6398229599,0.72616571188,0.0,0.0,0.0,0.0,0.0,0.0,0.0,0.0,0.0,0.000401275232434,0.00381779950112,0.00168999517336,0.01,0.0,0.0,0.0,0.01,0.0,0.0,0.0,0.01,-4.6151638031,0.817923605442,-8.40336799622,0.01,0.0,0.0,0.0,0.01,0.0,0.0,0.0,0.01
1585289618469464269,8251,1585289618469299905,foot_imu_link,-0.196854561567,-0.156626448035,-0.639816403389,0.726189613342,0.0,0.0,0.0,0.0,0.0,0.0,0.0,0.0,0.0,0.00174010079354,0.0047585228458,0.00193834258243,0.01,0.0,0.0,0.0,0.01,0.0,0.0,0.0,0.01,-4.60885047913,0.81641638279,-8.4221944809,0.01,0.0,0.0,0.0,0.01,0.0,0.0,0.0,0.01
1585289618495406711,8252,1585289618494662952,foot_imu_link,-0.196789905429,-0.156583085656,-0.639812648296,0.726219832897,0.0,0.0,0.0,0.0,0.0,0.0,0.0,0.0,0.0,0.000727877952158,0.00699439365417,0.00292668770999,0.01,0.0,0.0,0.0,0.01,0.0,0.0,0.0,0.01,-4.5908613205,0.80676984787,-8.42232322693,0.01,0.0,0.0,0.0,0.01,0.0,0.0,0.0,0.01
1585289618520426189,8253,1585289618519597695,foot_imu_link,-0.196695759892,-0.156530201435,-0.639814436436,0.726255238056,0.0,0.0,0.0,0.0,0.0,0.0,0.0,0.0,0.0,0.00312895234674,0.00671618804336,0.00129035441205,0.01,0.0,0.0,0.0,0.01,0.0,0.0,0.0,0.01,-4.58543682098,0.822422742844,-8.39373493195,0.01,0.0,0.0,0.0,0.01,0.0,0.0,0.0,0.01
1585289618545261658,8254,1585289618544506748,foot_imu_link,-0.196644052863,-0.156503364444,-0.639818906784,0.726271033287,0.0,0.0,0.0,0.0,0.0,0.0,0.0,0.0,0.0,0.00157014653087,0.00240170676261,0.000296440906823,0.01,0.0,0.0,0.0,0.01,0.0,0.0,0.0,0.01,-4.63203716278,0.825304746628,-8.43267059326,0.01,0.0,0.0,0.0,0.01,0.0,0.0,0.0,0.01
1585289618570469954,8255,1585289618569607250,foot_imu_link,-0.196599453688,-0.156498491764,-0.639819085598,0.726283967495,0.0,0.0,0.0,0.0,0.0,0.0,0.0,0.0,0.0,0.00256842374802,0.00326743070036,0.000117931514978,0.01,0.0,0.0,0.0,0.01,0.0,0.0,0.0,0.01,-4.60777187347,0.795502841473,-8.42285442352,0.01,0.0,0.0,0.0,0.01,0.0,0.0,0.0,0.01
1585289618595335922,8256,1585289618594639945,foot_imu_link,-0.196540117264,-0.156486332417,-0.639826059341,0.72629648447,0.0,0.0,0.0,0.0,0.0,0.0,0.0,0.0,0.0,0.00168908666819,0.00290261488408,0.000372023321688,0.01,0.0,0.0,0.0,0.01,0.0,0.0,0.0,0.01,-4.6118106842,0.803284823895,-8.40144348145,0.01,0.0,0.0,0.0,0.01,0.0,0.0,0.0,0.01
1585289618620618653,8257,1585289618619819604,foot_imu_link,-0.196472302079,-0.156472980976,-0.639838278294,0.726307034492,0.0,0.0,0.0,0.0,0.0,0.0,0.0,0.0,0.0,0.00297528319061,0.00440943147987,-0.00138680497184,0.01,0.0,0.0,0.0,0.01,0.0,0.0,0.0,0.01,-4.59185123444,0.780023336411,-8.43739700317,0.01,0.0,0.0,0.0,0.01,0.0,0.0,0.0,0.01
1585289618645317358,8258,1585289618644675570,foot_imu_link,-0.196380540729,-0.156471043825,-0.639876544476,0.726298570633,0.0,0.0,0.0,0.0,0.0,0.0,0.0,0.0,0.0,0.00671149417758,0.00437765475363,-0.00373948272318,0.01,0.0,0.0,0.0,0.01,0.0,0.0,0.0,0.01,-4.5851020813,0.794785857201,-8.42895698547,0.01,0.0,0.0,0.0,0.01,0.0,0.0,0.0,0.01
1585289618670281294,8259,1585289618669476193,foot_imu_link,-0.196316927671,-0.15649035573,-0.639909207821,0.726282775402,0.0,0.0,0.0,0.0,0.0,0.0,0.0,0.0,0.0,0.00117572396994,-0.000371676986106,-0.00273537216708,0.01,0.0,0.0,0.0,0.01,0.0,0.0,0.0,0.01,-4.60722923279,0.802216291428,-8.43282699585,0.01,0.0,0.0,0.0,0.01,0.0,0.0,0.0,0.01
1585289618695309879,8260,1585289618694419790,foot_imu_link,-0.196329861879,-0.156511217356,-0.639920532703,0.726264894009,0.0,0.0,0.0,0.0,0.0,0.0,0.0,0.0,0.0,-0.00022929161787,-0.00202257419005,-0.00060466164723,0.01,0.0,0.0,0.0,0.01,0.0,0.0,0.0,0.01,-4.62959861755,0.792389214039,-8.43676185608,0.01,0.0,0.0,0.0,0.01,0.0,0.0,0.0,0.01
1585289618720004179,8261,1585289618719338374,foot_imu_link,-0.196350350976,-0.156535580754,-0.639932096004,0.726243853569,0.0,0.0,0.0,0.0,0.0,0.0,0.0,0.0,0.0,0.000819768756628,-0.00356401596218,-0.00152912596241,0.01,0.0,0.0,0.0,0.01,0.0,0.0,0.0,0.01,-4.60634422302,0.795180559158,-8.39804840088,0.01,0.0,0.0,0.0,0.01,0.0,0.0,0.0,0.01
1585289618745246805,8262,1585289618744502161,foot_imu_link,-0.196382254362,-0.156562700868,-0.639932453632,0.726229071617,0.0,0.0,0.0,0.0,0.0,0.0,0.0,0.0,0.0,-0.00201042275876,-0.00251584080979,-0.0015637264587,0.01,0.0,0.0,0.0,0.01,0.0,0.0,0.0,0.01,-4.59625959396,0.781314134598,-8.40933990479,0.01,0.0,0.0,0.0,0.01,0.0,0.0,0.0,0.01
1585289618770185996,8263,1585289618769508613,foot_imu_link,-0.196410343051,-0.156587213278,-0.639938592911,0.726210713387,0.0,0.0,0.0,0.0,0.0,0.0,0.0,0.0,0.0,-0.00143876392394,-0.00263660261407,-0.00143990293145,0.01,0.0,0.0,0.0,0.01,0.0,0.0,0.0,0.01,-4.62246751785,0.792758703232,-8.4284658432,0.01,0.0,0.0,0.0,0.01,0.0,0.0,0.0,0.01
1585289618795028551,8264,1585289618794298278,foot_imu_link,-0.196443840861,-0.15661098063,-0.639935910702,0.726198971272,0.0,0.0,0.0,0.0,0.0,0.0,0.0,0.0,0.0,-0.00155950430781,-0.00235243886709,-0.00108872866258,0.01,0.0,0.0,0.0,0.01,0.0,0.0,0.0,0.01,-4.5969619751,0.830162763596,-8.43731594086,0.01,0.0,0.0,0.0,0.01,0.0,0.0,0.0,0.01
1585289618819917307,8265,1585289618819362926,foot_imu_link,-0.1964725703,-0.156641945243,-0.639935851097,0.726184546947,0.0,0.0,0.0,0.0,0.0,0.0,0.0,0.0,0.0,-0.000601545907557,-0.00322162453085,-0.00133778713644,0.01,0.0,0.0,0.0,0.01,0.0,0.0,0.0,0.01,-4.60271835327,0.821089267731,-8.42605018616,0.01,0.0,0.0,0.0,0.01,0.0,0.0,0.0,0.01
1585289618845417405,8266,1585289618844552610,foot_imu_link,-0.196489661932,-0.156669408083,-0.639948129654,0.72616314888,0.0,0.0,0.0,0.0,0.0,0.0,0.0,0.0,0.0,0.00104872696102,-0.00165471830405,-0.0019662855193,0.01,0.0,0.0,0.0,0.01,0.0,0.0,0.0,0.01,-4.61760282516,0.809335768223,-8.42721939087,0.01,0.0,0.0,0.0,0.01,0.0,0.0,0.0,0.01
1585289618870180685,8267,1585289618869502692,foot_imu_link,-0.196492925286,-0.156693160534,-0.639956593513,0.726149737835,0.0,0.0,0.0,0.0,0.0,0.0,0.0,0.0,0.0,0.00113636441529,-0.00134993554093,0.000329514965415,0.01,0.0,0.0,0.0,0.01,0.0,0.0,0.0,0.01,-4.62577390671,0.806717097759,-8.41671657562,0.01,0.0,0.0,0.0,0.01,0.0,0.0,0.0,0.01
1585289618894990373,8268,1585289618894217461,foot_imu_link,-0.196478456259,-0.15671338141,-0.639951348305,0.72615391016,0.0,0.0,0.0,0.0,0.0,0.0,0.0,0.0,0.0,0.000853241421282,0.000333745847456,-0.0009291684255,0.01,0.0,0.0,0.0,0.01,0.0,0.0,0.0,0.01,-4.60473823547,0.786731958389,-8.39760017395,0.01,0.0,0.0,0.0,0.01,0.0,0.0,0.0,0.01
1585289618920041716,8269,1585289618919341804,foot_imu_link,-0.196452692151,-0.156699553132,-0.639944911003,0.726169526577,0.0,0.0,0.0,0.0,0.0,0.0,0.0,0.0,0.0,0.000357076525688,0.00175473524723,0.000817289575934,0.01,0.0,0.0,0.0,0.01,0.0,0.0,0.0,0.01,-4.65631532669,0.811750173569,-8.43763065338,0.01,0.0,0.0,0.0,0.01,0.0,0.0,0.0,0.01
1585289618945302716,8270,1585289618944136576,foot_imu_link,-0.196427747607,-0.156691074371,-0.639935076237,0.726186811924,0.0,0.0,0.0,0.0,0.0,0.0,0.0,0.0,0.0,0.000697058625519,0.00240693124942,0.00106070656329,0.01,0.0,0.0,0.0,0.01,0.0,0.0,0.0,0.01,-4.63599157333,0.818350195885,-8.41328144073,0.01,0.0,0.0,0.0,0.01,0.0,0.0,0.0,0.01
1585289618969119459,8271,1585289618968779212,foot_imu_link,-0.196375444531,-0.156675904989,-0.63993948698,0.726200222969,0.0,0.0,0.0,0.0,0.0,0.0,0.0,0.0,0.0,0.00248624943197,0.00441498588771,-0.000972606241703,0.01,0.0,0.0,0.0,0.01,0.0,0.0,0.0,0.01,-4.59588909149,0.812323689461,-8.43428897858,0.01,0.0,0.0,0.0,0.01,0.0,0.0,0.0,0.01
1585289618994141333,8272,1585289618993888311,foot_imu_link,-0.1962826401,-0.156676873565,-0.639964342117,0.726203203201,0.0,0.0,0.0,0.0,0.0,0.0,0.0,0.0,0.0,0.00801737233996,0.00261771073565,-0.00485281646252,0.01,0.0,0.0,0.0,0.01,0.0,0.0,0.0,0.01,-4.56219768524,0.83790564537,-8.44824028015,0.01,0.0,0.0,0.0,0.01,0.0,0.0,0.0,0.01
1585289619019841215,8273,1585289619018996788,foot_imu_link,-0.196227356791,-0.156678378582,-0.639975786209,0.726207792759,0.0,0.0,0.0,0.0,0.0,0.0,0.0,0.0,0.0,0.0017392616719,0.0017716557486,-0.000561604741961,0.01,0.0,0.0,0.0,0.01,0.0,0.0,0.0,0.01,-4.59231042862,0.793070554733,-8.42039394379,0.01,0.0,0.0,0.0,0.01,0.0,0.0,0.0,0.01
1585289619044904233,8274,1585289619043969643,foot_imu_link,-0.19617921114,-0.156665682793,-0.639995753765,0.726205945015,0.0,0.0,0.0,0.0,0.0,0.0,0.0,0.0,0.0,0.00382875744253,0.00333284353837,-0.00166291696951,0.01,0.0,0.0,0.0,0.01,0.0,0.0,0.0,0.01,-4.61314296722,0.841520309448,-8.40615272522,0.01,0.0,0.0,0.0,0.01,0.0,0.0,0.0,0.01
1585289619070425130,8275,1585289619069007635,foot_imu_link,-0.196133375168,-0.156656041741,-0.640022814274,0.726196587086,0.0,0.0,0.0,0.0,0.0,0.0,0.0,0.0,0.0,0.00260225636885,0.00328676356003,-0.000928211491555,0.01,0.0,0.0,0.0,0.01,0.0,0.0,0.0,0.01,-4.61387252808,0.820895433426,-8.41141319275,0.01,0.0,0.0,0.0,0.01,0.0,0.0,0.0,0.01
1585289619095880925,8276,1585289619095225122,foot_imu_link,-0.196082040668,-0.156635761261,-0.640031516552,0.726207077503,0.0,0.0,0.0,0.0,0.0,0.0,0.0,0.0,0.0,0.000665436498821,0.00440569967031,0.00123838242143,0.01,0.0,0.0,0.0,0.01,0.0,0.0,0.0,0.01,-4.61446905136,0.795717000961,-8.43702507019,0.01,0.0,0.0,0.0,0.01,0.0,0.0,0.0,0.01
1585289619119783208,8277,1585289619118999619,foot_imu_link,-0.196044072509,-0.156601160765,-0.640035927296,0.726220965385,0.0,0.0,0.0,0.0,0.0,0.0,0.0,0.0,0.0,0.000969850458205,0.00346335815266,0.00121477479115,0.01,0.0,0.0,0.0,0.01,0.0,0.0,0.0,0.01,-4.59259033203,0.799440264702,-8.42680168152,0.01,0.0,0.0,0.0,0.01,0.0,0.0,0.0,0.01
1585289619145585136,8278,1585289619144930408,foot_imu_link,-0.196006372571,-0.15656106174,-0.640029251575,0.726245641708,0.0,0.0,0.0,0.0,0.0,0.0,0.0,0.0,0.0,-0.000536606647074,0.00455831410363,0.00253113219514,0.01,0.0,0.0,0.0,0.01,0.0,0.0,0.0,0.01,-4.61871957779,0.811546683311,-8.4544172287,0.01,0.0,0.0,0.0,0.01,0.0,0.0,0.0,0.01
1585289619170691244,8279,1585289619169844583,foot_imu_link,-0.19596645236,-0.156500443816,-0.640021026134,0.726276755333,0.0,0.0,0.0,0.0,0.0,0.0,0.0,0.0,0.0,-0.00116731598973,0.00510960351676,0.00157124223188,0.01,0.0,0.0,0.0,0.01,0.0,0.0,0.0,0.01,-4.617603302,0.797045528889,-8.43885421753,0.01,0.0,0.0,0.0,0.01,0.0,0.0,0.0,0.01
1585289619195779140,8280,1585289619195101639,foot_imu_link,-0.195913523436,-0.156465694308,-0.64000505209,0.726312577724,0.0,0.0,0.0,0.0,0.0,0.0,0.0,0.0,0.0,0.00363681931049,0.00452143047005,0.00260675000027,0.01,0.0,0.0,0.0,0.01,0.0,0.0,0.0,0.01,-4.60508823395,0.808380246162,-8.43796157837,0.01,0.0,0.0,0.0,0.01,0.0,0.0,0.0,0.01
1585289619220753298,8281,1585289619219898178,foot_imu_link,-0.195884421468,-0.156425520778,-0.639980971813,0.726350307465,0.0,0.0,0.0,0.0,0.0,0.0,0.0,0.0,0.0,0.000149683095515,0.00433730753139,0.00329259503633,0.01,0.0,0.0,0.0,0.01,0.0,0.0,0.0,0.01,-4.60234355927,0.796595394611,-8.44612693787,0.01,0.0,0.0,0.0,0.01,0.0,0.0,0.0,0.01
1585289619245530873,8282,1585289619244791027,foot_imu_link,-0.19587624073,-0.156386256218,-0.639967501163,0.726372778416,0.0,0.0,0.0,0.0,0.0,0.0,0.0,0.0,0.0,-0.00207983888686,0.00151060696226,0.00257206754759,0.01,0.0,0.0,0.0,0.01,0.0,0.0,0.0,0.01,-4.58448600769,0.803671836853,-8.39801979065,0.01,0.0,0.0,0.0,0.01,0.0,0.0,0.0,0.01
1585289619270594800,8283,1585289619269897051,foot_imu_link,-0.195909217,-0.156360194087,-0.639955639839,0.726379930973,0.0,0.0,0.0,0.0,0.0,0.0,0.0,0.0,0.0,-0.00236221216619,-0.00200210418552,0.00158124463633,0.01,0.0,0.0,0.0,0.01,0.0,0.0,0.0,0.01,-4.57513523102,0.844473421574,-8.43103122711,0.01,0.0,0.0,0.0,0.01,0.0,0.0,0.0,0.01
1585289619295263089,8284,1585289619294610490,foot_imu_link,-0.195949032903,-0.156363114715,-0.639957547188,0.72636693716,0.0,0.0,0.0,0.0,0.0,0.0,0.0,0.0,0.0,-0.00203183945268,-0.0031813250389,0.00054625235498,0.01,0.0,0.0,0.0,0.01,0.0,0.0,0.0,0.01,-4.61521720886,0.779025614262,-8.43589305878,0.01,0.0,0.0,0.0,0.01,0.0,0.0,0.0,0.01
1585289619320785739,8285,1585289619319683706,foot_imu_link,-0.195974960923,-0.156384259462,-0.63995808363,0.726355016232,0.0,0.0,0.0,0.0,0.0,0.0,0.0,0.0,0.0,-0.000254051759839,-0.00195284246001,-0.000912414863706,0.01,0.0,0.0,0.0,0.01,0.0,0.0,0.0,0.01,-4.60792922974,0.799166321754,-8.44706535339,0.01,0.0,0.0,0.0,0.01,0.0,0.0,0.0,0.01
1585289619345719358,8286,1585289619344921851,foot_imu_link,-0.195999771357,-0.156390309334,-0.639961004257,0.726344406605,0.0,0.0,0.0,0.0,0.0,0.0,0.0,0.0,0.0,-0.00113661214709,-0.00251757120714,9.95211303234e-06,0.01,0.0,0.0,0.0,0.01,0.0,0.0,0.0,0.01,-4.63660144806,0.815995931625,-8.44705486298,0.01,0.0,0.0,0.0,0.01,0.0,0.0,0.0,0.01
1585289619370391748,8287,1585289619369711101,foot_imu_link,-0.196013957262,-0.156408965588,-0.63995808363,0.726339042187,0.0,0.0,0.0,0.0,0.0,0.0,0.0,0.0,0.0,-0.000128666870296,-0.00261998153292,-0.00107253435999,0.01,0.0,0.0,0.0,0.01,0.0,0.0,0.0,0.01,-4.57783460617,0.801330685616,-8.4167098999,0.01,0.0,0.0,0.0,0.01,0.0,0.0,0.0,0.01
1585289619395876342,8288,1585289619394693803,foot_imu_link,-0.196027219296,-0.156428843737,-0.639968156815,0.726322352886,0.0,0.0,0.0,0.0,0.0,0.0,0.0,0.0,0.0,-0.000797330401838,-0.000690512708388,-0.00041469046846,0.01,0.0,0.0,0.0,0.01,0.0,0.0,0.0,0.01,-4.60440349579,0.795798838139,-8.38821792603,0.01,0.0,0.0,0.0,0.01,0.0,0.0,0.0,0.01
1585289619420485954,8289,1585289619419781503,foot_imu_link,-0.196052029729,-0.156447440386,-0.639971017838,0.72630918026,0.0,0.0,0.0,0.0,0.0,0.0,0.0,0.0,0.0,-0.0016509834677,-0.00313609233126,-0.00129151297733,0.01,0.0,0.0,0.0,0.01,0.0,0.0,0.0,0.01,-4.61139678955,0.818385660648,-8.43933296204,0.01,0.0,0.0,0.0,0.01,0.0,0.0,0.0,0.01
1585289619451238278,8290,1585289619444779997,foot_imu_link,-0.196074604988,-0.156453847885,-0.639981508255,0.726292431355,0.0,0.0,0.0,0.0,0.0,0.0,0.0,0.0,0.0,-0.000656573101878,-0.000994844012894,0.00025730766356,0.01,0.0,0.0,0.0,0.01,0.0,0.0,0.0,0.01,-4.61375999451,0.810973763466,-8.43561458588,0.01,0.0,0.0,0.0,0.01,0.0,0.0,0.0,0.01
1585289619469443815,8291,1585289619469058730,foot_imu_link,-0.196080476046,-0.156459316611,-0.639973580837,0.72629660368,0.0,0.0,0.0,0.0,0.0,0.0,0.0,0.0,0.0,-0.000887042842805,-0.000229091150686,0.00201311614364,0.01,0.0,0.0,0.0,0.01,0.0,0.0,0.0,0.01,-4.63406085968,0.79575496912,-8.43626785278,0.01,0.0,0.0,0.0,0.01,0.0,0.0,0.0,0.01
1585289619494471637,8292,1585289619494001447,foot_imu_link,-0.196089059114,-0.156452953815,-0.639968931675,0.72629982233,0.0,0.0,0.0,0.0,0.0,0.0,0.0,0.0,0.0,-0.00155423022807,0.000270349089988,0.000358238816261,0.01,0.0,0.0,0.0,0.01,0.0,0.0,0.0,0.01,-4.60524129868,0.811134696007,-8.41083717346,0.01,0.0,0.0,0.0,0.01,0.0,0.0,0.0,0.01
1585289619519225026,8293,1585289619519060311,foot_imu_link,-0.19607976079,-0.156430155039,-0.639974892139,0.726301908493,0.0,0.0,0.0,0.0,0.0,0.0,0.0,0.0,0.0,-0.000550733879209,0.00215409975499,0.000847296323627,0.01,0.0,0.0,0.0,0.01,0.0,0.0,0.0,0.01,-4.62385129929,0.826341092587,-8.41561889648,0.01,0.0,0.0,0.0,0.01,0.0,0.0,0.0,0.01
1585289619544387791,8294,1585289619544091522,foot_imu_link,-0.196071043611,-0.156406372786,-0.639989435673,0.726296663284,0.0,0.0,0.0,0.0,0.0,0.0,0.0,0.0,0.0,-0.000483565032482,0.00116918282583,-6.29387795925e-05,0.01,0.0,0.0,0.0,0.01,0.0,0.0,0.0,0.01,-4.59916400909,0.810073852539,-8.43499565125,0.01,0.0,0.0,0.0,0.01,0.0,0.0,0.0,0.01
1585289619569377362,8295,1585289619569085741,foot_imu_link,-0.196078062057,-0.156391844153,-0.639991104603,0.726296365261,0.0,0.0,0.0,0.0,0.0,0.0,0.0,0.0,0.0,-0.00149336550385,-0.000437260605395,0.00293046887964,0.01,0.0,0.0,0.0,0.01,0.0,0.0,0.0,0.01,-4.58314228058,0.809267640114,-8.43569564819,0.01,0.0,0.0,0.0,0.01,0.0,0.0,0.0,0.01
1585289619595233966,8296,1585289619594527001,foot_imu_link,-0.196101248264,-0.156389802694,-0.639987170696,0.726293981075,0.0,0.0,0.0,0.0,0.0,0.0,0.0,0.0,0.0,-0.000231513753533,-0.0019271587953,-0.000105085782707,0.01,0.0,0.0,0.0,0.01,0.0,0.0,0.0,0.01,-4.6006603241,0.79235035181,-8.40875911713,0.01,0.0,0.0,0.0,0.01,0.0,0.0,0.0,0.01
1585289619620075575,8297,1585289619619316518,foot_imu_link,-0.196112558246,-0.156375423074,-0.639999866486,0.726282894611,0.0,0.0,0.0,0.0,0.0,0.0,0.0,0.0,0.0,-0.00113155972213,-0.000312463380396,-0.000537703279406,0.01,0.0,0.0,0.0,0.01,0.0,0.0,0.0,0.01,-4.60915756226,0.827526807785,-8.43408679962,0.01,0.0,0.0,0.0,0.01,0.0,0.0,0.0,0.01
1585289619645221843,8298,1585289619644515704,foot_imu_link,-0.196121349931,-0.156371951103,-0.640007197857,0.72627478838,0.0,0.0,0.0,0.0,0.0,0.0,0.0,0.0,0.0,-0.000146272592247,-0.000507031742018,-0.000429222825915,0.01,0.0,0.0,0.0,0.01,0.0,0.0,0.0,0.01,-4.61009979248,0.804105222225,-8.43043613434,0.01,0.0,0.0,0.0,0.01,0.0,0.0,0.0,0.01
1585289619670171861,8299,1585289619669513009,foot_imu_link,-0.196113273501,-0.156362950802,-0.640011370182,0.726275265217,0.0,0.0,0.0,0.0,0.0,0.0,0.0,0.0,0.0,0.00027425494045,0.000763252144679,0.000786671414971,0.01,0.0,0.0,0.0,0.01,0.0,0.0,0.0,0.01,-4.6097650528,0.802810966969,-8.42021179199,0.01,0.0,0.0,0.0,0.01,0.0,0.0,0.0,0.01
1585289619695155117,8300,1585289619694357873,foot_imu_link,-0.196097582579,-0.156358063221,-0.640008747578,0.726282835007,0.0,0.0,0.0,0.0,0.0,0.0,0.0,0.0,0.0,-0.000593705102801,-0.00027959421277,0.0011344095692,0.01,0.0,0.0,0.0,0.01,0.0,0.0,0.0,0.01,-4.614320755,0.800675868988,-8.4198551178,0.01,0.0,0.0,0.0,0.01,0.0,0.0,0.0,0.01
1585289619720115470,8301,1585289619719459627,foot_imu_link,-0.196080759168,-0.156349614263,-0.640011250973,0.726287007332,0.0,0.0,0.0,0.0,0.0,0.0,0.0,0.0,0.0,2.26255506277e-05,0.00153446977492,0.000995057635009,0.01,0.0,0.0,0.0,0.01,0.0,0.0,0.0,0.01,-4.58551979065,0.806841671467,-8.45350837708,0.01,0.0,0.0,0.0,0.01,0.0,0.0,0.0,0.01
1585289619745124223,8302,1585289619744450907,foot_imu_link,-0.196070313454,-0.15634098649,-0.64000660181,0.726295828819,0.0,0.0,0.0,0.0,0.0,0.0,0.0,0.0,0.0,-0.00115382578224,-0.000298896164168,0.00145339313895,0.01,0.0,0.0,0.0,0.01,0.0,0.0,0.0,0.01,-4.61562728882,0.838824987411,-8.45629310608,0.01,0.0,0.0,0.0,0.01,0.0,0.0,0.0,0.01
1585289619770135233,8303,1585289619769243867,foot_imu_link,-0.196066230536,-0.156338870525,-0.640017032623,0.72628813982,0.0,0.0,0.0,0.0,0.0,0.0,0.0,0.0,0.0,0.000553829595447,-0.000507915741764,0.000227618031204,0.01,0.0,0.0,0.0,0.01,0.0,0.0,0.0,0.01,-4.59726905823,0.810471117496,-8.41938686371,0.01,0.0,0.0,0.0,0.01,0.0,0.0,0.0,0.01
1585289619794848322,8304,1585289619794077246,foot_imu_link,-0.196045398712,-0.156344354153,-0.640023350716,0.726286947727,0.0,0.0,0.0,0.0,0.0,0.0,0.0,0.0,0.0,-0.00112490635365,-0.00111105851829,0.000168420374393,0.01,0.0,0.0,0.0,0.01,0.0,0.0,0.0,0.01,-4.58142471313,0.810981035233,-8.44351959229,0.01,0.0,0.0,0.0,0.01,0.0,0.0,0.0,0.01
1585289619819744167,8305,1585289619819071415,foot_imu_link,-0.196057185531,-0.156352996826,-0.640009462833,0.726294159889,0.0,0.0,0.0,0.0,0.0,0.0,0.0,0.0,0.0,0.000457098707557,-0.000249412842095,-0.000769116450101,0.01,0.0,0.0,0.0,0.01,0.0,0.0,0.0,0.01,-4.59703922272,0.814925670624,-8.41633415222,0.01,0.0,0.0,0.0,0.01,0.0,0.0,0.0,0.01
1585289619844944319,8306,1585289619844185942,foot_imu_link,-0.196060374379,-0.15635702014,-0.640025913715,0.72627800703,0.0,0.0,0.0,0.0,0.0,0.0,0.0,0.0,0.0,0.00112521555275,-0.00117911852431,-0.00148360105231,0.01,0.0,0.0,0.0,0.01,0.0,0.0,0.0,0.01,-4.61936426163,0.818187236786,-8.40369415283,0.01,0.0,0.0,0.0,0.01,0.0,0.0,0.0,0.01
1585289619870201701,8307,1585289619869194115,foot_imu_link,-0.196046561003,-0.156378641725,-0.640035569668,0.726268529892,0.0,0.0,0.0,0.0,0.0,0.0,0.0,0.0,0.0,0.000226366333663,-0.0018755447818,-0.00079326890409,0.01,0.0,0.0,0.0,0.01,0.0,0.0,0.0,0.01,-4.61183166504,0.811998784542,-8.43484306335,0.01,0.0,0.0,0.0,0.01,0.0,0.0,0.0,0.01
1585289619894730879,8308,1585289619894067987,foot_imu_link,-0.196058735251,-0.156415358186,-0.640051484108,0.726243317127,0.0,0.0,0.0,0.0,0.0,0.0,0.0,0.0,0.0,0.000631008297205,-0.00452294899151,-0.000271359924227,0.01,0.0,0.0,0.0,0.01,0.0,0.0,0.0,0.01,-4.61871528625,0.799843609333,-8.43894767761,0.01,0.0,0.0,0.0,0.01,0.0,0.0,0.0,0.01
1585289619919794544,8309,1585289619919031018,foot_imu_link,-0.196091219783,-0.156471565366,-0.640061080456,0.726213932037,0.0,0.0,0.0,0.0,0.0,0.0,0.0,0.0,0.0,0.000388436019421,-0.00414067879319,0.000178317539394,0.01,0.0,0.0,0.0,0.01,0.0,0.0,0.0,0.01,-4.61932182312,0.812860846519,-8.43482494354,0.01,0.0,0.0,0.0,0.01,0.0,0.0,0.0,0.01
1585289619944909092,8310,1585289619944004698,foot_imu_link,-0.19609194994,-0.156510725617,-0.640065252781,0.726201653481,0.0,0.0,0.0,0.0,0.0,0.0,0.0,0.0,0.0,0.000820863060653,-0.000107634579763,-0.00117752980441,0.01,0.0,0.0,0.0,0.01,0.0,0.0,0.0,0.01,-4.61484098434,0.800122916698,-8.43048667908,0.01,0.0,0.0,0.0,0.01,0.0,0.0,0.0,0.01
1585289619969810181,8311,1585289619968993013,foot_imu_link,-0.19607655704,-0.156524553895,-0.640082299709,0.726187825203,0.0,0.0,0.0,0.0,0.0,0.0,0.0,0.0,0.0,0.00128866825253,-0.000192389299627,-0.000499114394188,0.01,0.0,0.0,0.0,0.01,0.0,0.0,0.0,0.01,-4.60321998596,0.804784357548,-8.37403488159,0.01,0.0,0.0,0.0,0.01,0.0,0.0,0.0,0.01
1585289619994914412,8312,1585289619994027333,foot_imu_link,-0.196069046855,-0.15653668344,-0.64010232687,0.726169645786,0.0,0.0,0.0,0.0,0.0,0.0,0.0,0.0,0.0,0.000775127671659,-0.000707844388671,-0.00143639883026,0.01,0.0,0.0,0.0,0.01,0.0,0.0,0.0,0.01,-4.59977722168,0.800013065338,-8.43675613403,0.01,0.0,0.0,0.0,0.01,0.0,0.0,0.0,0.01
1585289620019790840,8313,1585289620018908053,foot_imu_link,-0.196069806814,-0.156538382173,-0.6401065588,0.726165235043,0.0,0.0,0.0,0.0,0.0,0.0,0.0,0.0,0.0,-0.000261782668531,-0.000664792722091,-0.00161539390683,0.01,0.0,0.0,0.0,0.01,0.0,0.0,0.0,0.01,-4.5929684639,0.787653207779,-8.42612838745,0.01,0.0,0.0,0.0,0.01,0.0,0.0,0.0,0.01
1585289620044668126,8314,1585289620043820981,foot_imu_link,-0.196062117815,-0.156555354595,-0.64012414217,0.726148247719,0.0,0.0,0.0,0.0,0.0,0.0,0.0,0.0,0.0,0.000588673166931,-0.00156571681146,-0.00184727227315,0.01,0.0,0.0,0.0,0.01,0.0,0.0,0.0,0.01,-4.60477161407,0.811184048653,-8.45594120026,0.01,0.0,0.0,0.0,0.01,0.0,0.0,0.0,0.01
1585289620069684425,8315,1585289620068949455,foot_imu_link,-0.196068555117,-0.156593978405,-0.640124619007,0.726137697697,0.0,0.0,0.0,0.0,0.0,0.0,0.0,0.0,0.0,0.000402502715588,-0.000840301567223,-0.00136248907074,0.01,0.0,0.0,0.0,0.01,0.0,0.0,0.0,0.01,-4.62809896469,0.787512600422,-8.41184902191,0.01,0.0,0.0,0.0,0.01,0.0,0.0,0.0,0.01
1585289620094824037,8316,1585289620093798392,foot_imu_link,-0.196050867438,-0.156603381038,-0.640138745308,0.726128041744,0.0,0.0,0.0,0.0,0.0,0.0,0.0,0.0,0.0,-0.000170824117959,-0.000522591464687,-0.00148889515549,0.01,0.0,0.0,0.0,0.01,0.0,0.0,0.0,0.01,-4.58774662018,0.793418228626,-8.42382621765,0.01,0.0,0.0,0.0,0.01,0.0,0.0,0.0,0.01
1585289620119405819,8317,1585289620118706598,foot_imu_link,-0.196059912443,-0.156608551741,-0.640158295631,0.726107239723,0.0,0.0,0.0,0.0,0.0,0.0,0.0,0.0,0.0,-0.00127636361867,-0.000216077954974,-6.74040056765e-05,0.01,0.0,0.0,0.0,0.01,0.0,0.0,0.0,0.01,-4.62408876419,0.781708180904,-8.44733047485,0.01,0.0,0.0,0.0,0.01,0.0,0.0,0.0,0.01
1585289620144498953,8318,1585289620143682943,foot_imu_link,-0.196049034595,-0.156600281596,-0.640167057514,0.726104259491,0.0,0.0,0.0,0.0,0.0,0.0,0.0,0.0,0.0,-0.000623870640993,0.000460327020846,0.000633248593658,0.01,0.0,0.0,0.0,0.01,0.0,0.0,0.0,0.01,-4.59946775436,0.803849339485,-8.46209812164,0.01,0.0,0.0,0.0,0.01,0.0,0.0,0.0,0.01
1585289620169421934,8319,1585289620168634558,foot_imu_link,-0.196046173573,-0.156584277749,-0.640170693398,0.726105153561,0.0,0.0,0.0,0.0,0.0,0.0,0.0,0.0,0.0,-0.0020293937996,0.000918129575439,-0.000866767484695,0.01,0.0,0.0,0.0,0.01,0.0,0.0,0.0,0.01,-4.61472797394,0.809453845024,-8.44106388092,0.01,0.0,0.0,0.0,0.01,0.0,0.0,0.0,0.01
1585289620194543136,8320,1585289620193681942,foot_imu_link,-0.196042969823,-0.156583055854,-0.640185177326,0.72609359026,0.0,0.0,0.0,0.0,0.0,0.0,0.0,0.0,0.0,-0.000497154891491,-0.00191797991283,-0.000955402851105,0.01,0.0,0.0,0.0,0.01,0.0,0.0,0.0,0.01,-4.60854816437,0.811423063278,-8.41340065002,0.01,0.0,0.0,0.0,0.01,0.0,0.0,0.0,0.01
1585289620219382782,8321,1585289620218697699,foot_imu_link,-0.19604434073,-0.156581580639,-0.640189170837,0.726090013981,0.0,0.0,0.0,0.0,0.0,0.0,0.0,0.0,0.0,-0.000689402222633,-0.000527984637301,0.000478511210531,0.01,0.0,0.0,0.0,0.01,0.0,0.0,0.0,0.01,-4.61365604401,0.821670055389,-8.3991355896,0.01,0.0,0.0,0.0,0.01,0.0,0.0,0.0,0.01
1585289620244413946,8322,1585289620243750791,foot_imu_link,-0.19604177773,-0.156568646431,-0.640203893185,0.726080596447,0.0,0.0,0.0,0.0,0.0,0.0,0.0,0.0,0.0,-0.000697758048773,0.000440768431872,-0.000615176279098,0.01,0.0,0.0,0.0,0.01,0.0,0.0,0.0,0.01,-4.62849283218,0.819235026836,-8.41588783264,0.01,0.0,0.0,0.0,0.01,0.0,0.0,0.0,0.01
1585289620269101688,8323,1585289620268479415,foot_imu_link,-0.196048587561,-0.156566038728,-0.640198230743,0.72608423233,0.0,0.0,0.0,0.0,0.0,0.0,0.0,0.0,0.0,0.000631601549685,0.000448587234132,-0.00125897768885,0.01,0.0,0.0,0.0,0.01,0.0,0.0,0.0,0.01,-4.61899709702,0.803448855877,-8.41056919098,0.01,0.0,0.0,0.0,0.01,0.0,0.0,0.0,0.01
1585289620295101307,8324,1585289620294516257,foot_imu_link,-0.196028009057,-0.15656735003,-0.640210270882,0.726078927517,0.0,0.0,0.0,0.0,0.0,0.0,0.0,0.0,0.0,0.00130912940949,0.00154749129433,-0.000733984168619,0.01,0.0,0.0,0.0,0.01,0.0,0.0,0.0,0.01,-4.59396266937,0.810400187969,-8.43340969086,0.01,0.0,0.0,0.0,0.01,0.0,0.0,0.0,0.01
1585289620319116855,8325,1585289620318520484,foot_imu_link,-0.19599942863,-0.15656016767,-0.6402156353,0.726083397865,0.0,0.0,0.0,0.0,0.0,0.0,0.0,0.0,0.0,0.00190365314484,0.000920760096051,4.06708568335e-05,0.01,0.0,0.0,0.0,0.01,0.0,0.0,0.0,0.01,-4.62375164032,0.814609646797,-8.4299955368,0.01,0.0,0.0,0.0,0.01,0.0,0.0,0.0,0.01
1585289620345328396,8326,1585289620344683693,foot_imu_link,-0.195975542068,-0.156553447247,-0.640221297741,0.726086318493,0.0,0.0,0.0,0.0,0.0,0.0,0.0,0.0,0.0,0.00101164821535,0.000977618270554,0.000192828476429,0.01,0.0,0.0,0.0,0.01,0.0,0.0,0.0,0.01,-4.62826728821,0.809016346931,-8.44520378113,0.01,0.0,0.0,0.0,0.01,0.0,0.0,0.0,0.01
1585289620370112868,8327,1585289620369462885,foot_imu_link,-0.195962369442,-0.156562969089,-0.64022487402,0.726084649563,0.0,0.0,0.0,0.0,0.0,0.0,0.0,0.0,0.0,0.000491206534207,0.00108300347347,0.000454948749393,0.01,0.0,0.0,0.0,0.01,0.0,0.0,0.0,0.01,-4.60083723068,0.797493875027,-8.41407680511,0.01,0.0,0.0,0.0,0.01,0.0,0.0,0.0,0.01
1585289620395532762,8328,1585289620394546189,foot_imu_link,-0.195943593979,-0.156561329961,-0.640230119228,0.726085424423,0.0,0.0,0.0,0.0,0.0,0.0,0.0,0.0,0.0,0.000410159118474,0.000420876545832,0.000387022271752,0.01,0.0,0.0,0.0,0.01,0.0,0.0,0.0,0.01,-4.62102413177,0.796281337738,-8.41855144501,0.01,0.0,0.0,0.0,0.01,0.0,0.0,0.0,0.01
1585289620420638956,8329,1585289620419374620,foot_imu_link,-0.195940420032,-0.156544268131,-0.640222668648,0.726096510887,0.0,0.0,0.0,0.0,0.0,0.0,0.0,0.0,0.0,-0.000721427612007,-0.000633286312222,0.00018695415929,0.01,0.0,0.0,0.0,0.01,0.0,0.0,0.0,0.01,-4.60455989838,0.795812785625,-8.43708229065,0.01,0.0,0.0,0.0,0.01,0.0,0.0,0.0,0.01
1585289620445440240,8330,1585289620444485342,foot_imu_link,-0.195969954133,-0.156545549631,-0.640217840672,0.726092517376,0.0,0.0,0.0,0.0,0.0,0.0,0.0,0.0,0.0,-0.00286694057286,-0.00081058422802,0.00140857324004,0.01,0.0,0.0,0.0,0.01,0.0,0.0,0.0,0.01,-4.61774158478,0.79123210907,-8.4134645462,0.01,0.0,0.0,0.0,0.01,0.0,0.0,0.0,0.01
1585289620470214341,8331,1585289620469428726,foot_imu_link,-0.196010574698,-0.156530693173,-0.640214920044,0.726087391376,0.0,0.0,0.0,0.0,0.0,0.0,0.0,0.0,0.0,-0.00304110068828,-0.00157346681226,0.000996576156467,0.01,0.0,0.0,0.0,0.01,0.0,0.0,0.0,0.01,-4.59204387665,0.826963067055,-8.42611694336,0.01,0.0,0.0,0.0,0.01,0.0,0.0,0.0,0.01
1585289620495396400,8332,1585289620494570418,foot_imu_link,-0.196038737893,-0.15652371943,-0.64020639658,0.726088821888,0.0,0.0,0.0,0.0,0.0,0.0,0.0,0.0,0.0,-0.00170153565705,-0.000348543399014,-0.000268725678325,0.01,0.0,0.0,0.0,0.01,0.0,0.0,0.0,0.01,-4.63588428497,0.800426244736,-8.42924499512,0.01,0.0,0.0,0.0,0.01,0.0,0.0,0.0,0.01
1585289620519898086,8333,1585289620519262185,foot_imu_link,-0.196053653955,-0.156509652734,-0.640185296535,0.726106405258,0.0,0.0,0.0,0.0,0.0,0.0,0.0,0.0,0.0,-0.00240860879421,-0.000204133451916,0.00319250812754,0.01,0.0,0.0,0.0,0.01,0.0,0.0,0.0,0.01,-4.59468746185,0.799941837788,-8.41312789917,0.01,0.0,0.0,0.0,0.01,0.0,0.0,0.0,0.01
1585289620544248270,8334,1585289620543947926,foot_imu_link,-0.196070700884,-0.156488195062,-0.640172362328,0.726117908955,0.0,0.0,0.0,0.0,0.0,0.0,0.0,0.0,0.0,-0.00278514157981,-0.00103928055614,0.00134709244594,0.01,0.0,0.0,0.0,0.01,0.0,0.0,0.0,0.01,-4.59246826172,0.801561653614,-8.43161392212,0.01,0.0,0.0,0.0,0.01,0.0,0.0,0.0,0.01
1585289620569685606,8335,1585289620569221742,foot_imu_link,-0.196088820696,-0.156489789486,-0.640165328979,0.726118862629,0.0,0.0,0.0,0.0,0.0,0.0,0.0,0.0,0.0,-0.000240013934672,8.88913637027e-05,0.000748394522816,0.01,0.0,0.0,0.0,0.01,0.0,0.0,0.0,0.01,-4.62555980682,0.806084632874,-8.43109798431,0.01,0.0,0.0,0.0,0.01,0.0,0.0,0.0,0.01
1585289620595362853,8336,1585289620594294898,foot_imu_link,-0.196079611778,-0.156491860747,-0.640170812607,0.726116061211,0.0,0.0,0.0,0.0,0.0,0.0,0.0,0.0,0.0,0.00102697126567,-0.00110156903975,-0.000925661530346,0.01,0.0,0.0,0.0,0.01,0.0,0.0,0.0,0.01,-4.60553455353,0.825761318207,-8.41147994995,0.01,0.0,0.0,0.0,0.01,0.0,0.0,0.0,0.01
1585289620620049571,8337,1585289620619357850,foot_imu_link,-0.19605794549,-0.156509459019,-0.640178740025,0.726111114025,0.0,0.0,0.0,0.0,0.0,0.0,0.0,0.0,0.0,0.00124130770564,0.000244195922278,-0.0004973243922,0.01,0.0,0.0,0.0,0.01,0.0,0.0,0.0,0.01,-4.58734416962,0.787386536598,-8.4269695282,0.01,0.0,0.0,0.0,0.01,0.0,0.0,0.0,0.01
1585289620644960433,8338,1585289620644280998,foot_imu_link,-0.196036070585,-0.156518548727,-0.640195131302,0.726100623608,0.0,0.0,0.0,0.0,0.0,0.0,0.0,0.0,0.0,0.000774133019149,-0.000721800024621,-0.00176643300802,0.01,0.0,0.0,0.0,0.01,0.0,0.0,0.0,0.01,-4.61652374268,0.79173386097,-8.44245243073,0.01,0.0,0.0,0.0,0.01,0.0,0.0,0.0,0.01
1585289620670026558,8339,1585289620669336094,foot_imu_link,-0.196035400033,-0.156537219882,-0.640200078487,0.726092338562,0.0,0.0,0.0,0.0,0.0,0.0,0.0,0.0,0.0,0.000988205894828,0.000221234164201,-0.000518469605595,0.01,0.0,0.0,0.0,0.01,0.0,0.0,0.0,0.01,-4.61020898819,0.800066590309,-8.437084198,0.01,0.0,0.0,0.0,0.01,0.0,0.0,0.0,0.01
1585289620694735028,8340,1585289620694081387,foot_imu_link,-0.196014046669,-0.156542599201,-0.640202641487,0.726094782352,0.0,0.0,0.0,0.0,0.0,0.0,0.0,0.0,0.0,0.000398307107389,-0.000435518450104,1.02943740785e-05,0.01,0.0,0.0,0.0,0.01,0.0,0.0,0.0,0.01,-4.61876630783,0.794018089771,-8.44475746155,0.01,0.0,0.0,0.0,0.01,0.0,0.0,0.0,0.01
1585289620719666311,8341,1585289620719025987,foot_imu_link,-0.196006551385,-0.156553253531,-0.640204370022,0.726092875004,0.0,0.0,0.0,0.0,0.0,0.0,0.0,0.0,0.0,-0.000230393372476,-0.000344398547895,-0.00121025461704,0.01,0.0,0.0,0.0,0.01,0.0,0.0,0.0,0.01,-4.61261081696,0.797295689583,-8.42117595673,0.01,0.0,0.0,0.0,0.01,0.0,0.0,0.0,0.01
1585289620744697569,8342,1585289620744007505,foot_imu_link,-0.196003958583,-0.156579688191,-0.640208363533,0.72608435154,0.0,0.0,0.0,0.0,0.0,0.0,0.0,0.0,0.0,0.000694661401212,-0.000497795990668,-0.000937392935157,0.01,0.0,0.0,0.0,0.01,0.0,0.0,0.0,0.01,-4.59098815918,0.813149154186,-8.40691184998,0.01,0.0,0.0,0.0,0.01,0.0,0.0,0.0,0.01
1585289620769802180,8343,1585289620769104135,foot_imu_link,-0.195990771055,-0.156588792801,-0.640227377415,0.726069271564,0.0,0.0,0.0,0.0,0.0,0.0,0.0,0.0,0.0,-0.000147906132042,0.0013034545118,-0.0013597686775,0.01,0.0,0.0,0.0,0.01,0.0,0.0,0.0,0.01,-4.60969877243,0.807551920414,-8.45065498352,0.01,0.0,0.0,0.0,0.01,0.0,0.0,0.0,0.01
1585289620794656887,8344,1585289620794008377,foot_imu_link,-0.195972144604,-0.156606987119,-0.640230178833,0.726067841053,0.0,0.0,0.0,0.0,0.0,0.0,0.0,0.0,0.0,0.00261222291738,-0.0023699302692,-0.00157538754866,0.01,0.0,0.0,0.0,0.01,0.0,0.0,0.0,0.01,-4.5748128891,0.81239259243,-8.42051124573,0.01,0.0,0.0,0.0,0.01,0.0,0.0,0.0,0.01
1585289620819926825,8345,1585289620819263133,foot_imu_link,-0.195971086621,-0.156625047326,-0.640244841576,0.726051330566,0.0,0.0,0.0,0.0,0.0,0.0,0.0,0.0,0.0,0.000949757173657,-0.00089191889856,-0.000803799368441,0.01,0.0,0.0,0.0,0.01,0.0,0.0,0.0,0.01,-4.62212562561,0.797785997391,-8.4305896759,0.01,0.0,0.0,0.0,0.01,0.0,0.0,0.0,0.01
1585289620844781343,8346,1585289620844129384,foot_imu_link,-0.195961043239,-0.156641036272,-0.640249013901,0.726046860218,0.0,0.0,0.0,0.0,0.0,0.0,0.0,0.0,0.0,0.00126580521464,0.000231052632444,-0.000198398716748,0.01,0.0,0.0,0.0,0.01,0.0,0.0,0.0,0.01,-4.61557292938,0.811333477497,-8.43355083466,0.01,0.0,0.0,0.0,0.01,0.0,0.0,0.0,0.01
1585289620869614910,8347,1585289620868920092,foot_imu_link,-0.19594836235,-0.156655296683,-0.640254855156,0.726042151451,0.0,0.0,0.0,0.0,0.0,0.0,0.0,0.0,0.0,0.000564691610634,-5.09358942509e-05,-0.000711673870683,0.01,0.0,0.0,0.0,0.01,0.0,0.0,0.0,0.01,-4.59227085114,0.815183401108,-8.41671943665,0.01,0.0,0.0,0.0,0.01,0.0,0.0,0.0,0.01
1585289620894612834,8348,1585289620893972748,foot_imu_link,-0.195936396718,-0.15667116642,-0.640268206596,0.726030170918,0.0,0.0,0.0,0.0,0.0,0.0,0.0,0.0,0.0,0.00100617669523,-0.000732599757612,-0.00132353277877,0.01,0.0,0.0,0.0,0.01,0.0,0.0,0.0,0.01,-4.64501428604,0.807773351669,-8.42937278748,0.01,0.0,0.0,0.0,0.01,0.0,0.0,0.0,0.01
1585289620919760379,8349,1585289620919078759,foot_imu_link,-0.19592615962,-0.156694576144,-0.640284657478,0.726013362408,0.0,0.0,0.0,0.0,0.0,0.0,0.0,0.0,0.0,0.000466947443783,-0.000521380221471,-0.000441034790128,0.01,0.0,0.0,0.0,0.01,0.0,0.0,0.0,0.01,-4.62597703934,0.807678341866,-8.42293739319,0.01,0.0,0.0,0.0,0.01,0.0,0.0,0.0,0.01
1585289620944695430,8350,1585289620944029266,foot_imu_link,-0.195925742388,-0.156694680452,-0.640287220478,0.726011097431,0.0,0.0,0.0,0.0,0.0,0.0,0.0,0.0,0.0,-0.000127884559333,0.00107629748527,0.000597023870796,0.01,0.0,0.0,0.0,0.01,0.0,0.0,0.0,0.01,-4.61661577225,0.797881126404,-8.44869613647,0.01,0.0,0.0,0.0,0.01,0.0,0.0,0.0,0.01
1585289620969570802,8351,1585289620968907216,foot_imu_link,-0.195927858353,-0.15669490397,-0.640283048153,0.726014196873,0.0,0.0,0.0,0.0,0.0,0.0,0.0,0.0,0.0,-0.000241263769567,-0.0013485418167,0.000311953481287,0.01,0.0,0.0,0.0,0.01,0.0,0.0,0.0,0.01,-4.6195807457,0.813396394253,-8.43131828308,0.01,0.0,0.0,0.0,0.01,0.0,0.0,0.0,0.01
1585289620994444273,8352,1585289620993779344,foot_imu_link,-0.195937678218,-0.156681641936,-0.640279531479,0.726017475128,0.0,0.0,0.0,0.0,0.0,0.0,0.0,0.0,0.0,-0.000128803774714,-0.000388078740798,-0.000134357251227,0.01,0.0,0.0,0.0,0.01,0.0,0.0,0.0,0.01,-4.60848045349,0.806084513664,-8.43321037292,0.01,0.0,0.0,0.0,0.01,0.0,0.0,0.0,0.01
1585289621019537790,8353,1585289621018731085,foot_imu_link,-0.195960104465,-0.156681060791,-0.640285372734,0.726006448269,0.0,0.0,0.0,0.0,0.0,0.0,0.0,0.0,0.0,-0.000663467682898,-0.00385269615799,-0.000150501728058,0.01,0.0,0.0,0.0,0.01,0.0,0.0,0.0,0.01,-4.61583757401,0.785422801971,-8.45020484924,0.01,0.0,0.0,0.0,0.01,0.0,0.0,0.0,0.01
1585289621044557139,8354,1585289621043898276,foot_imu_link,-0.195978030562,-0.156682223082,-0.640292108059,0.72599542141,0.0,0.0,0.0,0.0,0.0,0.0,0.0,0.0,0.0,-0.00152927730232,2.66011338681e-05,0.000874558463693,0.01,0.0,0.0,0.0,0.01,0.0,0.0,0.0,0.01,-4.61666917801,0.817926943302,-8.43136978149,0.01,0.0,0.0,0.0,0.01,0.0,0.0,0.0,0.01
1585289621069654306,8355,1585289621068962110,foot_imu_link,-0.195986121893,-0.156665161252,-0.640287518501,0.726000964642,0.0,0.0,0.0,0.0,0.0,0.0,0.0,0.0,0.0,-0.0010088859126,0.000553231220692,8.93860124052e-05,0.01,0.0,0.0,0.0,0.01,0.0,0.0,0.0,0.01,-4.60314655304,0.817786335945,-8.40047359467,0.01,0.0,0.0,0.0,0.01,0.0,0.0,0.0,0.01
1585289621094441240,8356,1585289621093727751,foot_imu_link,-0.195987030864,-0.156659603119,-0.640283644199,0.726005315781,0.0,0.0,0.0,0.0,0.0,0.0,0.0,0.0,0.0,-0.00129175465554,0.000562229310162,0.000139193143696,0.01,0.0,0.0,0.0,0.01,0.0,0.0,0.0,0.01,-4.60081958771,0.810112416744,-8.40418815613,0.01,0.0,0.0,0.0,0.01,0.0,0.0,0.0,0.01
1585289621120011481,8357,1585289621118776604,foot_imu_link,-0.19598479569,-0.156644821167,-0.640288949013,0.726004421711,0.0,0.0,0.0,0.0,0.0,0.0,0.0,0.0,0.0,-0.000222058035433,-2.05298420042e-05,0.000540611799806,0.01,0.0,0.0,0.0,0.01,0.0,0.0,0.0,0.01,-4.5916185379,0.810096502304,-8.42260932922,0.01,0.0,0.0,0.0,0.01,0.0,0.0,0.0,0.01
1585289621144265164,8358,1585289621143580390,foot_imu_link,-0.195998385549,-0.15663471818,-0.640296399593,0.725996375084,0.0,0.0,0.0,0.0,0.0,0.0,0.0,0.0,0.0,-0.00193687528372,-0.00309424288571,-7.76215456426e-05,0.01,0.0,0.0,0.0,0.01,0.0,0.0,0.0,0.01,-4.60956096649,0.808658540249,-8.39253520966,0.01,0.0,0.0,0.0,0.01,0.0,0.0,0.0,0.01
1585289621169561872,8359,1585289621168817713,foot_imu_link,-0.196028634906,-0.156648084521,-0.640296876431,0.725984871387,0.0,0.0,0.0,0.0,0.0,0.0,0.0,0.0,0.0,-0.000108652748168,-0.00149735063314,0.000428601168096,0.01,0.0,0.0,0.0,0.01,0.0,0.0,0.0,0.01,-4.61246967316,0.800011694431,-8.43054580688,0.01,0.0,0.0,0.0,0.01,0.0,0.0,0.0,0.01
1585289621194457184,8360,1585289621193702450,foot_imu_link,-0.196037337184,-0.15665653348,-0.640289485455,0.725987315178,0.0,0.0,0.0,0.0,0.0,0.0,0.0,0.0,0.0,-0.00162213668227,0.000528267002665,0.000770793762058,0.01,0.0,0.0,0.0,0.01,0.0,0.0,0.0,0.01,-4.61330270767,0.813476920128,-8.42254638672,0.01,0.0,0.0,0.0,0.01,0.0,0.0,0.0,0.01
1585289621219496508,8361,1585289621218595766,foot_imu_link,-0.196034327149,-0.156651869416,-0.640289545059,0.725989043713,0.0,0.0,0.0,0.0,0.0,0.0,0.0,0.0,0.0,-0.000121980905533,-0.000156021327712,0.000693473499268,0.01,0.0,0.0,0.0,0.01,0.0,0.0,0.0,0.01,-4.60990524292,0.819819748402,-8.39983272552,0.01,0.0,0.0,0.0,0.01,0.0,0.0,0.0,0.01
1585289621244490668,8362,1585289621243836449,foot_imu_link,-0.196042120457,-0.15664345026,-0.640296757221,0.725982367992,0.0,0.0,0.0,0.0,0.0,0.0,0.0,0.0,0.0,-0.000583688728511,-0.000968344684225,-0.000546550843865,0.01,0.0,0.0,0.0,0.01,0.0,0.0,0.0,0.01,-4.63897323608,0.778239905834,-8.44297981262,0.01,0.0,0.0,0.0,0.01,0.0,0.0,0.0,0.01
1585289621269485282,8363,1585289621268750929,foot_imu_link,-0.19606512785,-0.156655550003,-0.640308916569,0.725962817669,0.0,0.0,0.0,0.0,0.0,0.0,0.0,0.0,0.0,-0.00163707137108,-0.00140635180287,0.000203496776521,0.01,0.0,0.0,0.0,0.01,0.0,0.0,0.0,0.01,-4.62782859802,0.820013523102,-8.42058563232,0.01,0.0,0.0,0.0,0.01,0.0,0.0,0.0,0.01
1585289621294122737,8364,1585289621293535287,foot_imu_link,-0.196079298854,-0.156655490398,-0.640315830708,0.725952863693,0.0,0.0,0.0,0.0,0.0,0.0,0.0,0.0,0.0,-0.000357479788363,-2.78303632513e-05,-0.00068645644933,0.01,0.0,0.0,0.0,0.01,0.0,0.0,0.0,0.01,-4.61497116089,0.803309679031,-8.42000579834,0.01,0.0,0.0,0.0,0.01,0.0,0.0,0.0,0.01
1585289621319263671,8365,1585289621318507157,foot_imu_link,-0.196072682738,-0.156643912196,-0.64031291008,0.725959718227,0.0,0.0,0.0,0.0,0.0,0.0,0.0,0.0,0.0,-0.00093490909785,0.00104041211307,0.000661763362586,0.01,0.0,0.0,0.0,0.01,0.0,0.0,0.0,0.01,-4.60902023315,0.800427436829,-8.42879676819,0.01,0.0,0.0,0.0,0.01,0.0,0.0,0.0,0.01
1585289621344001462,8366,1585289621343374938,foot_imu_link,-0.19608104229,-0.156625255942,-0.64031368494,0.725960850716,0.0,0.0,0.0,0.0,0.0,0.0,0.0,0.0,0.0,-0.00207139365375,-4.09735366702e-05,0.000853993464261,0.01,0.0,0.0,0.0,0.01,0.0,0.0,0.0,0.01,-4.60504627228,0.792698383331,-8.40177249908,0.01,0.0,0.0,0.0,0.01,0.0,0.0,0.0,0.01
1585289621368914998,8367,1585289621368290885,foot_imu_link,-0.196090951562,-0.15662278235,-0.640320658684,0.72595256567,0.0,0.0,0.0,0.0,0.0,0.0,0.0,0.0,0.0,-0.000800141133368,-0.000468472309876,0.000857209321111,0.01,0.0,0.0,0.0,0.01,0.0,0.0,0.0,0.01,-4.60923957825,0.821788668633,-8.43986320496,0.01,0.0,0.0,0.0,0.01,0.0,0.0,0.0,0.01
1585289621394478842,8368,1585289621393420253,foot_imu_link,-0.196073517203,-0.15660738945,-0.640329897404,0.725952386856,0.0,0.0,0.0,0.0,0.0,0.0,0.0,0.0,0.0,0.00185210350901,0.00109318736941,0.000409329775721,0.01,0.0,0.0,0.0,0.01,0.0,0.0,0.0,0.01,-4.6249833107,0.808572351933,-8.43120193481,0.01,0.0,0.0,0.0,0.01,0.0,0.0,0.0,0.01
1585289621418894724,8369,1585289621418282316,foot_imu_link,-0.196061432362,-0.156582608819,-0.640343487263,0.725949108601,0.0,0.0,0.0,0.0,0.0,0.0,0.0,0.0,0.0,-0.000478967092931,0.00065264350269,0.000827922485769,0.01,0.0,0.0,0.0,0.01,0.0,0.0,0.0,0.01,-4.60748767853,0.796172320843,-8.45396232605,0.01,0.0,0.0,0.0,0.01,0.0,0.0,0.0,0.01
1585289621443922570,8370,1585289621443163271,foot_imu_link,-0.196047082543,-0.156571820378,-0.640323340893,0.725973069668,0.0,0.0,0.0,0.0,0.0,0.0,0.0,0.0,0.0,-0.000914946198463,0.00143570057116,0.00242539215833,0.01,0.0,0.0,0.0,0.01,0.0,0.0,0.0,0.01,-4.61490821838,0.811425566673,-8.41304016113,0.01,0.0,0.0,0.0,0.01,0.0,0.0,0.0,0.01
1585289621468919848,8371,1585289621468324523,foot_imu_link,-0.196020573378,-0.156545087695,-0.640314638615,0.72599363327,0.0,0.0,0.0,0.0,0.0,0.0,0.0,0.0,0.0,9.7238458693e-05,0.00320219062269,0.000904174987227,0.01,0.0,0.0,0.0,0.01,0.0,0.0,0.0,0.01,-4.58489465714,0.836639583111,-8.44658660889,0.01,0.0,0.0,0.0,0.01,0.0,0.0,0.0,0.01
1585289621494088176,8372,1585289621493388217,foot_imu_link,-0.195999354124,-0.156528636813,-0.64031535387,0.726002335548,0.0,0.0,0.0,0.0,0.0,0.0,0.0,0.0,0.0,0.000582421198487,0.00155319308396,-0.000954184215516,0.01,0.0,0.0,0.0,0.01,0.0,0.0,0.0,0.01,-4.60762023926,0.811595022678,-8.42280387878,0.01,0.0,0.0,0.0,0.01,0.0,0.0,0.0,0.01
1585289621519079967,8373,1585289621518287976,foot_imu_link,-0.195988640189,-0.156543195248,-0.640321791172,0.725996375084,0.0,0.0,0.0,0.0,0.0,0.0,0.0,0.0,0.0,-0.00077060982585,-0.000749829574488,0.000203825999051,0.01,0.0,0.0,0.0,0.01,0.0,0.0,0.0,0.01,-4.61768817902,0.799214959145,-8.4561252594,0.01,0.0,0.0,0.0,0.01,0.0,0.0,0.0,0.01
1585289621544155194,8374,1585289621543189401,foot_imu_link,-0.195999115705,-0.156538501382,-0.640320181847,0.725996017456,0.0,0.0,0.0,0.0,0.0,0.0,0.0,0.0,0.0,-0.00247430987656,-0.00247443583794,-0.000360837206244,0.01,0.0,0.0,0.0,0.01,0.0,0.0,0.0,0.01,-4.62109279633,0.82057595253,-8.41383457184,0.01,0.0,0.0,0.0,0.01,0.0,0.0,0.0,0.01
1585289621568390767,8375,1585289621568007254,foot_imu_link,-0.196026831865,-0.156552091241,-0.640308976173,0.72599542141,0.0,0.0,0.0,0.0,0.0,0.0,0.0,0.0,0.0,-0.0015255222097,-0.000693864771165,-0.000473644584417,0.01,0.0,0.0,0.0,0.01,0.0,0.0,0.0,0.01,-4.59450149536,0.823639392853,-8.43708992004,0.01,0.0,0.0,0.0,0.01,0.0,0.0,0.0,0.01
1585289621594234307,8376,1585289621593942942,foot_imu_link,-0.196026518941,-0.15655092895,-0.640322506428,0.725983858109,0.0,0.0,0.0,0.0,0.0,0.0,0.0,0.0,0.0,-0.000740522518754,0.00123656226788,-7.41514377296e-05,0.01,0.0,0.0,0.0,0.01,0.0,0.0,0.0,0.01,-4.61354541779,0.799225568771,-8.43106269836,0.01,0.0,0.0,0.0,0.01,0.0,0.0,0.0,0.01
1585289621619047775,8377,1585289621618149362,foot_imu_link,-0.196020677686,-0.156535252929,-0.640330791473,0.725981533527,0.0,0.0,0.0,0.0,0.0,0.0,0.0,0.0,0.0,-0.000545498915017,0.00018059683498,0.000250972341746,0.01,0.0,0.0,0.0,0.01,0.0,0.0,0.0,0.01,-4.61243534088,0.808853328228,-8.42249488831,0.01,0.0,0.0,0.0,0.01,0.0,0.0,0.0,0.01
1585289621645251654,8378,1585289621644322881,foot_imu_link,-0.196028977633,-0.156534284353,-0.640335142612,0.725975573063,0.0,0.0,0.0,0.0,0.0,0.0,0.0,0.0,0.0,-0.00235338043422,7.87867465988e-05,0.000702444463968,0.01,0.0,0.0,0.0,0.01,0.0,0.0,0.0,0.01,-4.61632299423,0.788481473923,-8.42992782593,0.01,0.0,0.0,0.0,0.01,0.0,0.0,0.0,0.01
1585289621668796727,8379,1585289621668088665,foot_imu_link,-0.196048304439,-0.156531199813,-0.640317797661,0.725986361504,0.0,0.0,0.0,0.0,0.0,0.0,0.0,0.0,0.0,-0.00123505201191,-0.0010783309117,-8.64211469889e-05,0.01,0.0,0.0,0.0,0.01,0.0,0.0,0.0,0.01,-4.61295795441,0.806353211403,-8.41717243195,0.01,0.0,0.0,0.0,0.01,0.0,0.0,0.0,0.01
1585289621694734376,8380,1585289621694051339,foot_imu_link,-0.196051165462,-0.156526088715,-0.640307128429,0.725996077061,0.0,0.0,0.0,0.0,0.0,0.0,0.0,0.0,0.0,-0.000478504225612,0.000348885194398,0.00102599384263,0.01,0.0,0.0,0.0,0.01,0.0,0.0,0.0,0.01,-4.61031150818,0.794787406921,-8.41424655914,0.01,0.0,0.0,0.0,0.01,0.0,0.0,0.0,0.01
1585289621719806443,8381,1585289621719203172,foot_imu_link,-0.196037396789,-0.15650986135,-0.640310823917,0.726000010967,0.0,0.0,0.0,0.0,0.0,0.0,0.0,0.0,0.0,0.000315809622407,0.00172865903005,-0.000452464446425,0.01,0.0,0.0,0.0,0.01,0.0,0.0,0.0,0.01,-4.58357620239,0.815983951092,-8.4479598999,0.01,0.0,0.0,0.0,0.01,0.0,0.0,0.0,0.01
1585289621744483871,8382,1585289621743935471,foot_imu_link,-0.196028366685,-0.156506568193,-0.640322566032,0.72599285841,0.0,0.0,0.0,0.0,0.0,0.0,0.0,0.0,0.0,-0.000424707308412,-0.00143760046922,0.000124138314277,0.01,0.0,0.0,0.0,0.01,0.0,0.0,0.0,0.01,-4.60937261581,0.823156416416,-8.43142604828,0.01,0.0,0.0,0.0,0.01,0.0,0.0,0.0,0.01
1585289621770000248,8383,1585289621769181537,foot_imu_link,-0.19604575634,-0.1565105021,-0.640315711498,0.725993335247,0.0,0.0,0.0,0.0,0.0,0.0,0.0,0.0,0.0,-0.000928856432438,-0.00176942592952,-9.09427180886e-05,0.01,0.0,0.0,0.0,0.01,0.0,0.0,0.0,0.01,-4.62014579773,0.80551636219,-8.46708297729,0.01,0.0,0.0,0.0,0.01,0.0,0.0,0.0,0.01
1585289621794826592,8384,1585289621794043260,foot_imu_link,-0.19605435431,-0.156499296427,-0.640319526196,0.725990116596,0.0,0.0,0.0,0.0,0.0,0.0,0.0,0.0,0.0,-0.00185548700392,-0.000339338497724,-0.00063322391361,0.01,0.0,0.0,0.0,0.01,0.0,0.0,0.0,0.01,-4.61133623123,0.810950636864,-8.41992092133,0.01,0.0,0.0,0.0,0.01,0.0,0.0,0.0,0.01
1585289621819637835,8385,1585289621818954929,foot_imu_link,-0.196061044931,-0.156499415636,-0.640330135822,0.725978851318,0.0,0.0,0.0,0.0,0.0,0.0,0.0,0.0,0.0,-0.000772327184677,-0.000989600666799,0.000505618751049,0.01,0.0,0.0,0.0,0.01,0.0,0.0,0.0,0.01,-4.59854316711,0.790308475494,-8.42170810699,0.01,0.0,0.0,0.0,0.01,0.0,0.0,0.0,0.01
1585289621844729825,8386,1585289621844012006,foot_imu_link,-0.196090638638,-0.156506851315,-0.640329658985,0.725969672203,0.0,0.0,0.0,0.0,0.0,0.0,0.0,0.0,0.0,-0.00173037219793,-0.00306178443134,-0.000191100873053,0.01,0.0,0.0,0.0,0.01,0.0,0.0,0.0,0.01,-4.6009349823,0.819884598255,-8.42172431946,0.01,0.0,0.0,0.0,0.01,0.0,0.0,0.0,0.01
1585289621869599053,8387,1585289621868853512,foot_imu_link,-0.196121290326,-0.156525835395,-0.640324473381,0.725961863995,0.0,0.0,0.0,0.0,0.0,0.0,0.0,0.0,0.0,-0.000532422214746,-0.00218290230259,8.25384631753e-05,0.01,0.0,0.0,0.0,0.01,0.0,0.0,0.0,0.01,-4.63091945648,0.794174790382,-8.42375183105,0.01,0.0,0.0,0.0,0.01,0.0,0.0,0.0,0.01
1585289621894506771,8388,1585289621893752781,foot_imu_link,-0.19615060091,-0.156565666199,-0.640332937241,0.725937962532,0.0,0.0,0.0,0.0,0.0,0.0,0.0,0.0,0.0,-0.000477019697428,-0.0045775519684,-0.00193287851289,0.01,0.0,0.0,0.0,0.01,0.0,0.0,0.0,0.01,-4.64199113846,0.798112869263,-8.41377925873,0.01,0.0,0.0,0.0,0.01,0.0,0.0,0.0,0.01
1585289621919811336,8389,1585289621918804140,foot_imu_link,-0.196177020669,-0.156603261828,-0.640345871449,0.725911259651,0.0,0.0,0.0,0.0,0.0,0.0,0.0,0.0,0.0,-0.00113877281547,-0.00429861061275,-0.00122902356088,0.01,0.0,0.0,0.0,0.01,0.0,0.0,0.0,0.01,-4.62301635742,0.801138997078,-8.45026779175,0.01,0.0,0.0,0.0,0.01,0.0,0.0,0.0,0.01
1585289621944477567,8390,1585289621943811419,foot_imu_link,-0.196194246411,-0.156631678343,-0.6403683424,0.725880682468,0.0,0.0,0.0,0.0,0.0,0.0,0.0,0.0,0.0,-0.000292416661978,-0.00344491237774,-0.00152036175132,0.01,0.0,0.0,0.0,0.01,0.0,0.0,0.0,0.01,-4.61440753937,0.801246166229,-8.44258880615,0.01,0.0,0.0,0.0,0.01,0.0,0.0,0.0,0.01
1585289621969484495,8391,1585289621968746802,foot_imu_link,-0.196218490601,-0.156660273671,-0.640371620655,0.725865066051,0.0,0.0,0.0,0.0,0.0,0.0,0.0,0.0,0.0,0.000955083407462,-0.00270284200087,-0.00123424408957,0.01,0.0,0.0,0.0,0.01,0.0,0.0,0.0,0.01,-4.6093287468,0.805550456047,-8.41760730743,0.01,0.0,0.0,0.0,0.01,0.0,0.0,0.0,0.01
1585289621994448716,8392,1585289621993775762,foot_imu_link,-0.196208164096,-0.156668111682,-0.640379011631,0.725859582424,0.0,0.0,0.0,0.0,0.0,0.0,0.0,0.0,0.0,0.000741233117878,0.000267536612228,-0.00111407134682,0.01,0.0,0.0,0.0,0.01,0.0,0.0,0.0,0.01,-4.62294721603,0.808253288269,-8.40603542328,0.01,0.0,0.0,0.0,0.01,0.0,0.0,0.0,0.01
1585289622019577500,8393,1585289622018869371,foot_imu_link,-0.196200072765,-0.156691923738,-0.640385150909,0.725851356983,0.0,0.0,0.0,0.0,0.0,0.0,0.0,0.0,0.0,0.00127641391009,-0.000781974638812,-0.00214188033715,0.01,0.0,0.0,0.0,0.01,0.0,0.0,0.0,0.01,-4.59287261963,0.796380102634,-8.41980552673,0.01,0.0,0.0,0.0,0.01,0.0,0.0,0.0,0.01
1585289622044491686,8394,1585289622043844691,foot_imu_link,-0.196168497205,-0.156706064939,-0.640403568745,0.725840568542,0.0,0.0,0.0,0.0,0.0,0.0,0.0,0.0,0.0,0.00100958626717,0.000191641505808,-0.00139785697684,0.01,0.0,0.0,0.0,0.01,0.0,0.0,0.0,0.01,-4.6165804863,0.746816039085,-8.40816116333,0.01,0.0,0.0,0.0,0.01,0.0,0.0,0.0,0.01
1585289622069307578,8395,1585289622068612237,foot_imu_link,-0.196166172624,-0.15670864284,-0.640415430069,0.725830078125,0.0,0.0,0.0,0.0,0.0,0.0,0.0,0.0,0.0,0.00056251231581,-0.000964765786193,-0.000282956752926,0.01,0.0,0.0,0.0,0.01,0.0,0.0,0.0,0.01,-4.61748409271,0.815539777279,-8.4366645813,0.01,0.0,0.0,0.0,0.01,0.0,0.0,0.0,0.01
1585289622094154106,8396,1585289622093521880,foot_imu_link,-0.196177423,-0.156725883484,-0.640420198441,0.72581911087,0.0,0.0,0.0,0.0,0.0,0.0,0.0,0.0,0.0,0.000749030150473,-0.000714138383046,-0.000420933123678,0.01,0.0,0.0,0.0,0.01,0.0,0.0,0.0,0.01,-4.61090564728,0.810706913471,-8.41674137115,0.01,0.0,0.0,0.0,0.01,0.0,0.0,0.0,0.01
1585289622119643370,8397,1585289622118716814,foot_imu_link,-0.196173906326,-0.156734794378,-0.64041531086,0.725822508335,0.0,0.0,0.0,0.0,0.0,0.0,0.0,0.0,0.0,-0.000221636146307,0.000538212363608,-6.50156289339e-05,0.01,0.0,0.0,0.0,0.01,0.0,0.0,0.0,0.01,-4.59160375595,0.809414446354,-8.40599250793,0.01,0.0,0.0,0.0,0.01,0.0,0.0,0.0,0.01
1585289622144220699,8398,1585289622143476881,foot_imu_link,-0.196156263351,-0.156725600362,-0.640415787697,0.725828766823,0.0,0.0,0.0,0.0,0.0,0.0,0.0,0.0,0.0,0.000960450619459,0.00145687826443,-0.000292584765702,0.01,0.0,0.0,0.0,0.01,0.0,0.0,0.0,0.01,-4.61913299561,0.800440609455,-8.42063522339,0.01,0.0,0.0,0.0,0.01,0.0,0.0,0.0,0.01
1585289622169290465,8399,1585289622168444170,foot_imu_link,-0.196138441563,-0.156717196107,-0.64041775465,0.725833654404,0.0,0.0,0.0,0.0,0.0,0.0,0.0,0.0,0.0,0.000835402868688,0.000411500455812,-0.00112828984857,0.01,0.0,0.0,0.0,0.01,0.0,0.0,0.0,0.01,-4.61396026611,0.798091351986,-8.4043674469,0.01,0.0,0.0,0.0,0.01,0.0,0.0,0.0,0.01
1585289622194355416,8400,1585289622193665768,foot_imu_link,-0.196112409234,-0.156712919474,-0.640410065651,0.72584849596,0.0,0.0,0.0,0.0,0.0,0.0,0.0,0.0,0.0,0.00147643871605,0.00252355542034,0.000423023011535,0.01,0.0,0.0,0.0,0.01,0.0,0.0,0.0,0.01,-4.62477350235,0.781083106995,-8.42004203796,0.01,0.0,0.0,0.0,0.01,0.0,0.0,0.0,0.01
1585289622219698661,8401,1585289622218914149,foot_imu_link,-0.196092635393,-0.156706854701,-0.640407204628,0.725857675076,0.0,0.0,0.0,0.0,0.0,0.0,0.0,0.0,0.0,0.00154779106379,0.00217663822696,0.0010392088443,0.01,0.0,0.0,0.0,0.01,0.0,0.0,0.0,0.01,-4.59666824341,0.811107575893,-8.40228462219,0.01,0.0,0.0,0.0,0.01,0.0,0.0,0.0,0.01
1585289622244363773,8402,1585289622243545653,foot_imu_link,-0.196060478687,-0.156696587801,-0.640418946743,0.725858151913,0.0,0.0,0.0,0.0,0.0,0.0,0.0,0.0,0.0,0.00120653770864,0.00442068837583,-0.000155122950673,0.01,0.0,0.0,0.0,0.01,0.0,0.0,0.0,0.01,-4.61363554001,0.804941892624,-8.41213417053,0.01,0.0,0.0,0.0,0.01,0.0,0.0,0.0,0.01
1585289622269281198,8403,1585289622268544982,foot_imu_link,-0.196036815643,-0.156683474779,-0.640431046486,0.725856781006,0.0,0.0,0.0,0.0,0.0,0.0,0.0,0.0,0.0,0.000678394921124,0.000614062184468,-0.000272770412266,0.01,0.0,0.0,0.0,0.01,0.0,0.0,0.0,0.01,-4.60648536682,0.793526351452,-8.44001960754,0.01,0.0,0.0,0.0,0.01,0.0,0.0,0.0,0.01
1585289622294336468,8404,1585289622293653780,foot_imu_link,-0.196031048894,-0.15668451786,-0.640418946743,0.725868701935,0.0,0.0,0.0,0.0,0.0,0.0,0.0,0.0,0.0,-0.000438190065324,-0.00116661936045,0.00123730767518,0.01,0.0,0.0,0.0,0.01,0.0,0.0,0.0,0.01,-4.61549139023,0.801044583321,-8.40503501892,0.01,0.0,0.0,0.0,0.01,0.0,0.0,0.0,0.01
1585289622319222806,8405,1585289622318545632,foot_imu_link,-0.196030393243,-0.156686395407,-0.640419661999,0.72586786747,0.0,0.0,0.0,0.0,0.0,0.0,0.0,0.0,0.0,0.000397576019168,-6.70821173117e-05,0.00116235343739,0.01,0.0,0.0,0.0,0.01,0.0,0.0,0.0,0.01,-4.59052181244,0.784926533699,-8.39627933502,0.01,0.0,0.0,0.0,0.01,0.0,0.0,0.0,0.01
1585289622343748287,8406,1585289622343175346,foot_imu_link,-0.196025073528,-0.156686678529,-0.640414655209,0.725873708725,0.0,0.0,0.0,0.0,0.0,0.0,0.0,0.0,0.0,0.00130946002901,0.00157604378182,0.000374922994524,0.01,0.0,0.0,0.0,0.01,0.0,0.0,0.0,0.01,-4.62098455429,0.812668800354,-8.39795684814,0.01,0.0,0.0,0.0,0.01,0.0,0.0,0.0,0.01
1585289622369332734,8407,1585289622368332542,foot_imu_link,-0.19599494338,-0.156678825617,-0.640413820744,0.725884199142,0.0,0.0,0.0,0.0,0.0,0.0,0.0,0.0,0.0,0.00108499173075,0.00159034004901,7.35609792173e-05,0.01,0.0,0.0,0.0,0.01,0.0,0.0,0.0,0.01,-4.59867572784,0.803945302963,-8.41466140747,0.01,0.0,0.0,0.0,0.01,0.0,0.0,0.0,0.01
1585289622394378843,8408,1585289622393408269,foot_imu_link,-0.195970714092,-0.156672894955,-0.640417575836,0.725888729095,0.0,0.0,0.0,0.0,0.0,0.0,0.0,0.0,0.0,0.0010699396953,0.00123166607227,0.000260716769844,0.01,0.0,0.0,0.0,0.01,0.0,0.0,0.0,0.01,-4.59102153778,0.791465222836,-8.41424369812,0.01,0.0,0.0,0.0,0.01,0.0,0.0,0.0,0.01
1585289622419222857,8409,1585289622418289913,foot_imu_link,-0.195947229862,-0.156665876508,-0.640427470207,0.72588789463,0.0,0.0,0.0,0.0,0.0,0.0,0.0,0.0,0.0,0.00060160830617,0.00113073294051,0.000734250061214,0.01,0.0,0.0,0.0,0.01,0.0,0.0,0.0,0.01,-4.58357620239,0.821586966515,-8.39801692963,0.01,0.0,0.0,0.0,0.01,0.0,0.0,0.0,0.01
1585289622443849507,8410,1585289622443183156,foot_imu_link,-0.195935741067,-0.156652033329,-0.640435576439,0.725886821747,0.0,0.0,0.0,0.0,0.0,0.0,0.0,0.0,0.0,-3.61995771527e-05,-0.000313277705573,0.000116038601846,0.01,0.0,0.0,0.0,0.01,0.0,0.0,0.0,0.01,-4.59336090088,0.800567030907,-8.41088676453,0.01,0.0,0.0,0.0,0.01,0.0,0.0,0.0,0.01
1585289622468834212,8411,1585289622468182619,foot_imu_link,-0.195924252272,-0.156642138958,-0.640450835228,0.725878596306,0.0,0.0,0.0,0.0,0.0,0.0,0.0,0.0,0.0,-0.000304287299514,0.000378108466975,-0.000212107785046,0.01,0.0,0.0,0.0,0.01,0.0,0.0,0.0,0.01,-4.6000418663,0.799862682819,-8.41511821747,0.01,0.0,0.0,0.0,0.01,0.0,0.0,0.0,0.01
1585289622493916614,8412,1585289622493337988,foot_imu_link,-0.195923551917,-0.156629160047,-0.640442550182,0.725888848305,0.0,0.0,0.0,0.0,0.0,0.0,0.0,0.0,0.0,-0.00125675275922,0.000221204361878,0.00103253126144,0.01,0.0,0.0,0.0,0.01,0.0,0.0,0.0,0.01,-4.61976718903,0.806822896004,-8.43606376648,0.01,0.0,0.0,0.0,0.01,0.0,0.0,0.0,0.01
1585289622519224726,8413,1585289622518352843,foot_imu_link,-0.195919856429,-0.156616598368,-0.640445411205,0.725890040398,0.0,0.0,0.0,0.0,0.0,0.0,0.0,0.0,0.0,-0.00107214879245,0.000367217813618,0.00203167973086,0.01,0.0,0.0,0.0,0.01,0.0,0.0,0.0,0.01,-4.59155082703,0.782697737217,-8.43388271332,0.01,0.0,0.0,0.0,0.01,0.0,0.0,0.0,0.01
1585289622544039971,8414,1585289622543249022,foot_imu_link,-0.195933997631,-0.156607612967,-0.640438735485,0.725894093513,0.0,0.0,0.0,0.0,0.0,0.0,0.0,0.0,0.0,-0.00202924758196,0.000943526858464,0.000369823537767,0.01,0.0,0.0,0.0,0.01,0.0,0.0,0.0,0.01,-4.62864303589,0.808930635452,-8.39147090912,0.01,0.0,0.0,0.0,0.01,0.0,0.0,0.0,0.01
1585289622569373751,8415,1585289622568323614,foot_imu_link,-0.195954278111,-0.156598478556,-0.640429317951,0.72589892149,0.0,0.0,0.0,0.0,0.0,0.0,0.0,0.0,0.0,-0.00147609878331,-0.000437796057668,0.000824769958854,0.01,0.0,0.0,0.0,0.01,0.0,0.0,0.0,0.01,-4.59921169281,0.806655526161,-8.43056488037,0.01,0.0,0.0,0.0,0.01,0.0,0.0,0.0,0.01
1585289622593050121,8416,1585289622592666841,foot_imu_link,-0.195973262191,-0.156589984894,-0.640424668789,0.725899636745,0.0,0.0,0.0,0.0,0.0,0.0,0.0,0.0,0.0,-0.00190036185086,-0.000913958763704,0.00040486920625,0.01,0.0,0.0,0.0,0.01,0.0,0.0,0.0,0.01,-4.59368991852,0.82187974453,-8.41762638092,0.01,0.0,0.0,0.0,0.01,0.0,0.0,0.0,0.01
1585289622617947264,8417,1585289622617711096,foot_imu_link,-0.195998042822,-0.15658006072,-0.640412807465,0.725905656815,0.0,0.0,0.0,0.0,0.0,0.0,0.0,0.0,0.0,-0.00254292041063,-0.0029436594341,0.000676610507071,0.01,0.0,0.0,0.0,0.01,0.0,0.0,0.0,0.01,-4.61199951172,0.786790013313,-8.40612506866,0.01,0.0,0.0,0.0,0.01,0.0,0.0,0.0,0.01
1585289622643382229,8418,1585289622642792894,foot_imu_link,-0.196018874645,-0.156583160162,-0.640415430069,0.725896954536,0.0,0.0,0.0,0.0,0.0,0.0,0.0,0.0,0.0,-0.000670219771564,-0.000466986559331,0.000416500028223,0.01,0.0,0.0,0.0,0.01,0.0,0.0,0.0,0.01,-4.64022731781,0.790309250355,-8.44408512115,0.01,0.0,0.0,0.0,0.01,0.0,0.0,0.0,0.01
1585289622668648815,8419,1585289622668041339,foot_imu_link,-0.196021527052,-0.156583249569,-0.640429496765,0.725883901119,0.0,0.0,0.0,0.0,0.0,0.0,0.0,0.0,0.0,-0.000788151286542,-2.72783217952e-05,-0.000898635014892,0.01,0.0,0.0,0.0,0.01,0.0,0.0,0.0,0.01,-4.59990406036,0.806949734688,-8.40847015381,0.01,0.0,0.0,0.0,0.01,0.0,0.0,0.0,0.01
1585289622693884144,8420,1585289622692941473,foot_imu_link,-0.196035638452,-0.156579881907,-0.640435159206,0.725875794888,0.0,0.0,0.0,0.0,0.0,0.0,0.0,0.0,0.0,-0.00226330570877,-0.00147127150558,0.00114384200424,0.01,0.0,0.0,0.0,0.01,0.0,0.0,0.0,0.01,-4.61309957504,0.78894919157,-8.43604469299,0.01,0.0,0.0,0.0,0.01,0.0,0.0,0.0,0.01
1585289622718536547,8421,1585289622717877674,foot_imu_link,-0.196047380567,-0.156589120626,-0.640431940556,0.725873470306,0.0,0.0,0.0,0.0,0.0,0.0,0.0,0.0,0.0,-0.00126813631505,-0.00180918769911,-0.000664819963276,0.01,0.0,0.0,0.0,0.01,0.0,0.0,0.0,0.01,-4.58094024658,0.836206912994,-8.43653964996,0.01,0.0,0.0,0.0,0.01,0.0,0.0,0.0,0.01
1585289622743754182,8422,1585289622743091931,foot_imu_link,-0.196073681116,-0.156596750021,-0.640448093414,0.725850403309,0.0,0.0,0.0,0.0,0.0,0.0,0.0,0.0,0.0,-0.00117098167539,-0.00444461405277,-0.000692203175277,0.01,0.0,0.0,0.0,0.01,0.0,0.0,0.0,0.01,-4.5901927948,0.787023723125,-8.40440654755,0.01,0.0,0.0,0.0,0.01,0.0,0.0,0.0,0.01
1585289622768564055,8423,1585289622767844559,foot_imu_link,-0.196103766561,-0.156617581844,-0.640455365181,0.725831449032,0.0,0.0,0.0,0.0,0.0,0.0,0.0,0.0,0.0,-0.000565769150853,-0.00322270300239,-0.00156894139946,0.01,0.0,0.0,0.0,0.01,0.0,0.0,0.0,0.01,-4.59974479675,0.810768783092,-8.40549659729,0.01,0.0,0.0,0.0,0.01,0.0,0.0,0.0,0.01
1585289622793694791,8424,1585289622792802544,foot_imu_link,-0.196163624525,-0.156652837992,-0.64044880867,0.725813388824,0.0,0.0,0.0,0.0,0.0,0.0,0.0,0.0,0.0,-0.00441397354007,-0.00373114738613,0.000491767656058,0.01,0.0,0.0,0.0,0.01,0.0,0.0,0.0,0.01,-4.4507894516,0.727031171322,-8.40093326569,0.01,0.0,0.0,0.0,0.01,0.0,0.0,0.0,0.01
1585289622818315485,8425,1585289622817796665,foot_imu_link,-0.196166649461,-0.156679496169,-0.640437781811,0.725816607475,0.0,0.0,0.0,0.0,0.0,0.0,0.0,0.0,0.0,0.00237039662898,-0.00334689021111,-0.00022081984207,0.01,0.0,0.0,0.0,0.01,0.0,0.0,0.0,0.01,-4.60151433945,0.846737086773,-8.40402793884,0.01,0.0,0.0,0.0,0.01,0.0,0.0,0.0,0.01
1585289622843663715,8426,1585289622843005364,foot_imu_link,-0.196155443788,-0.156686007977,-0.640436470509,0.725819289684,0.0,0.0,0.0,0.0,0.0,0.0,0.0,0.0,0.0,7.4852257967e-05,-0.000458889000583,0.000324560794979,0.01,0.0,0.0,0.0,0.01,0.0,0.0,0.0,0.01,-4.60824584961,0.804275512695,-8.44520568848,0.01,0.0,0.0,0.0,0.01,0.0,0.0,0.0,0.01
1585289622868641596,8427,1585289622867971182,foot_imu_link,-0.196138963103,-0.15669478476,-0.640449404716,0.725810468197,0.0,0.0,0.0,0.0,0.0,0.0,0.0,0.0,0.0,0.000873006880283,0.00169007305522,-0.00225741928443,0.01,0.0,0.0,0.0,0.01,0.0,0.0,0.0,0.01,-4.59721803665,0.804196953773,-8.44405269623,0.01,0.0,0.0,0.0,0.01,0.0,0.0,0.0,0.01
1585289622894331788,8428,1585289622893735799,foot_imu_link,-0.196128353477,-0.156688943505,-0.640454530716,0.725810050964,0.0,0.0,0.0,0.0,0.0,0.0,0.0,0.0,0.0,0.000288135372102,0.000127848936245,-0.000195068772882,0.01,0.0,0.0,0.0,0.01,0.0,0.0,0.0,0.01,-4.60611867905,0.815898895264,-8.42355918884,0.01,0.0,0.0,0.0,0.01,0.0,0.0,0.0,0.01
1585289622918552600,8429,1585289622917820219,foot_imu_link,-0.196136429906,-0.156688913703,-0.640457987785,0.725804805756,0.0,0.0,0.0,0.0,0.0,0.0,0.0,0.0,0.0,-0.00154755264521,-0.000781927141361,-0.000669049099088,0.01,0.0,0.0,0.0,0.01,0.0,0.0,0.0,0.01,-4.59111166,0.785130977631,-8.43594169617,0.01,0.0,0.0,0.0,0.01,0.0,0.0,0.0,0.01
1585289622944196761,8430,1585289622943593942,foot_imu_link,-0.196133822203,-0.156676992774,-0.640462577343,0.725804150105,0.0,0.0,0.0,0.0,0.0,0.0,0.0,0.0,0.0,-3.9916485548e-05,0.00155362789519,-0.000340398866683,0.01,0.0,0.0,0.0,0.01,0.0,0.0,0.0,0.01,-4.60487747192,0.799395501614,-8.42510890961,0.01,0.0,0.0,0.0,0.01,0.0,0.0,0.0,0.01
1585289622968477476,8431,1585289622967630593,foot_imu_link,-0.196111753583,-0.156662330031,-0.640464484692,0.725811481476,0.0,0.0,0.0,0.0,0.0,0.0,0.0,0.0,0.0,0.000303752720356,0.00233294209465,0.000221968628466,0.01,0.0,0.0,0.0,0.01,0.0,0.0,0.0,0.01,-4.6502366066,0.793134093285,-8.44904613495,0.01,0.0,0.0,0.0,0.01,0.0,0.0,0.0,0.01
1585289622994501832,8432,1585289622993700252,foot_imu_link,-0.196105569601,-0.156640246511,-0.640466272831,0.725816369057,0.0,0.0,0.0,0.0,0.0,0.0,0.0,0.0,0.0,-0.000415217131376,0.00136038602795,-0.000155800487846,0.01,0.0,0.0,0.0,0.01,0.0,0.0,0.0,0.01,-4.58034276962,0.802701294422,-8.41582870483,0.01,0.0,0.0,0.0,0.01,0.0,0.0,0.0,0.01
1585289623019416092,8433,1585289623018743993,foot_imu_link,-0.196105763316,-0.156626909971,-0.640469551086,0.725816309452,0.0,0.0,0.0,0.0,0.0,0.0,0.0,0.0,0.0,-0.0001016035676,0.000778141547926,0.000507944729179,0.01,0.0,0.0,0.0,0.01,0.0,0.0,0.0,0.01,-4.58992862701,0.809409618378,-8.40635108948,0.01,0.0,0.0,0.0,0.01,0.0,0.0,0.0,0.01
1585289623044445085,8434,1585289623043789240,foot_imu_link,-0.196114137769,-0.156636074185,-0.640474438667,0.725807726383,0.0,0.0,0.0,0.0,0.0,0.0,0.0,0.0,0.0,0.000646002590656,-0.000870193878654,-0.000326153356582,0.01,0.0,0.0,0.0,0.01,0.0,0.0,0.0,0.01,-4.62811136246,0.809356570244,-8.41219043732,0.01,0.0,0.0,0.0,0.01,0.0,0.0,0.0,0.01
1585289623069216428,8435,1585289623068538350,foot_imu_link,-0.196118324995,-0.156643852592,-0.64047318697,0.725806117058,0.0,0.0,0.0,0.0,0.0,0.0,0.0,0.0,0.0,2.17296183109e-05,-0.000298959494103,-0.000152522232383,0.01,0.0,0.0,0.0,0.01,0.0,0.0,0.0,0.01,-4.63827514648,0.803667664528,-8.41883277893,0.01,0.0,0.0,0.0,0.01,0.0,0.0,0.0,0.01
1585289623094295386,8436,1585289623093685053,foot_imu_link,-0.196113824844,-0.156637832522,-0.640482664108,0.725800275803,0.0,0.0,0.0,0.0,0.0,0.0,0.0,0.0,0.0,-0.00011907890439,0.000696760718711,0.000838907901198,0.01,0.0,0.0,0.0,0.01,0.0,0.0,0.0,0.01,-4.63232564926,0.797563672066,-8.43556404114,0.01,0.0,0.0,0.0,0.01,0.0,0.0,0.0,0.01
1585289623119277845,8437,1585289623118699659,foot_imu_link,-0.196090534329,-0.156624794006,-0.640485346317,0.725806951523,0.0,0.0,0.0,0.0,0.0,0.0,0.0,0.0,0.0,0.0014078496024,0.00315535091795,0.00014658132568,0.01,0.0,0.0,0.0,0.01,0.0,0.0,0.0,0.01,-4.63196706772,0.819601118565,-8.41628742218,0.01,0.0,0.0,0.0,0.01,0.0,0.0,0.0,0.01
1585289623144170228,8438,1585289623143454477,foot_imu_link,-0.196058318019,-0.15661033988,-0.640476942062,0.725826203823,0.0,0.0,0.0,0.0,0.0,0.0,0.0,0.0,0.0,0.000265686772764,0.00358684686944,0.000215478241444,0.01,0.0,0.0,0.0,0.01,0.0,0.0,0.0,0.01,-4.5907740593,0.806310653687,-8.4267282486,0.01,0.0,0.0,0.0,0.01,0.0,0.0,0.0,0.01
1585289623169339386,8439,1585289623168688038,foot_imu_link,-0.196030795574,-0.156585037708,-0.640469193459,0.725845992565,0.0,0.0,0.0,0.0,0.0,0.0,0.0,0.0,0.0,0.00118699017912,0.0038542621769,0.00253763562068,0.01,0.0,0.0,0.0,0.01,0.0,0.0,0.0,0.01,-4.60704517365,0.777016878128,-8.44892597198,0.01,0.0,0.0,0.0,0.01,0.0,0.0,0.0,0.01
1585289623194363880,8440,1585289623193623272,foot_imu_link,-0.19599942863,-0.156540423632,-0.64045894146,0.725873053074,0.0,0.0,0.0,0.0,0.0,0.0,0.0,0.0,0.0,-0.000248675234616,0.00598729029298,0.00325306039304,0.01,0.0,0.0,0.0,0.01,0.0,0.0,0.0,0.01,-4.60904359818,0.805871903896,-8.45066261292,0.01,0.0,0.0,0.0,0.01,0.0,0.0,0.0,0.01
1585289623219136412,8441,1585289623218427149,foot_imu_link,-0.195950508118,-0.156486332417,-0.64046651125,0.725891292095,0.0,0.0,0.0,0.0,0.0,0.0,0.0,0.0,0.0,0.000293540768325,0.00527081917971,0.000726590398699,0.01,0.0,0.0,0.0,0.01,0.0,0.0,0.0,0.01,-4.62253427505,0.806401014328,-8.42634677887,0.01,0.0,0.0,0.0,0.01,0.0,0.0,0.0,0.01
1585289623244105347,8442,1585289623243497570,foot_imu_link,-0.195889353752,-0.156448855996,-0.640471994877,0.725911021233,0.0,0.0,0.0,0.0,0.0,0.0,0.0,0.0,0.0,0.00227590883151,0.00441341102123,-6.21331855655e-05,0.01,0.0,0.0,0.0,0.01,0.0,0.0,0.0,0.01,-4.56985759735,0.806573927402,-8.43165206909,0.01,0.0,0.0,0.0,0.01,0.0,0.0,0.0,0.01
1585289623269167614,8443,1585289623268578827,foot_imu_link,-0.19582785666,-0.156440228224,-0.640481889248,0.725920677185,0.0,0.0,0.0,0.0,0.0,0.0,0.0,0.0,0.0,0.00496838055551,0.00370490550995,-0.00209579011425,0.01,0.0,0.0,0.0,0.01,0.0,0.0,0.0,0.01,-4.59894752502,0.799845635891,-8.44013214111,0.01,0.0,0.0,0.0,0.01,0.0,0.0,0.0,0.01
1585289623293956959,8444,1585289623293439272,foot_imu_link,-0.195771500468,-0.156423062086,-0.640484333038,0.72593742609,0.0,0.0,0.0,0.0,0.0,0.0,0.0,0.0,0.0,0.000293543562293,0.00265405233949,0.0025077550672,0.01,0.0,0.0,0.0,0.01,0.0,0.0,0.0,0.01,-4.60999774933,0.79526746273,-8.423204422,0.01,0.0,0.0,0.0,0.01,0.0,0.0,0.0,0.01
1585289623318821352,8445,1585289623318220445,foot_imu_link,-0.19575497508,-0.156399682164,-0.640475690365,0.725954651833,0.0,0.0,0.0,0.0,0.0,0.0,0.0,0.0,0.0,0.000592738389969,0.00233350787312,0.00194685300812,0.01,0.0,0.0,0.0,0.01,0.0,0.0,0.0,0.01,-4.59412145615,0.784877121449,-8.44128990173,0.01,0.0,0.0,0.0,0.01,0.0,0.0,0.0,0.01
1585289623344447996,8446,1585289623343362023,foot_imu_link,-0.195746153593,-0.156375512481,-0.640465140343,0.725971519947,0.0,0.0,0.0,0.0,0.0,0.0,0.0,0.0,0.0,-0.00115190912038,0.00208034506068,0.00106784095988,0.01,0.0,0.0,0.0,0.01,0.0,0.0,0.0,0.01,-4.59537696838,0.792104661465,-8.45816993713,0.01,0.0,0.0,0.0,0.01,0.0,0.0,0.0,0.01
1585289623369063318,8447,1585289623368280561,foot_imu_link,-0.195743441582,-0.156344249845,-0.640459775925,0.725983738899,0.0,0.0,0.0,0.0,0.0,0.0,0.0,0.0,0.0,-0.00157665554434,0.00321073434316,0.00151698663831,0.01,0.0,0.0,0.0,0.01,0.0,0.0,0.0,0.01,-4.58286476135,0.803629994392,-8.41624546051,0.01,0.0,0.0,0.0,0.01,0.0,0.0,0.0,0.01
1585289623394422596,8448,1585289623393316999,foot_imu_link,-0.195733621716,-0.156307265162,-0.640461087227,0.725993096828,0.0,0.0,0.0,0.0,0.0,0.0,0.0,0.0,0.0,-0.000464347191155,0.000942638027482,6.85732811689e-05,0.01,0.0,0.0,0.0,0.01,0.0,0.0,0.0,0.01,-4.57179927826,0.798532307148,-8.39631080627,0.01,0.0,0.0,0.0,0.01,0.0,0.0,0.0,0.01
1585289623418861747,8449,1585289623418226554,foot_imu_link,-0.195740059018,-0.156293258071,-0.640475451946,0.725981712341,0.0,0.0,0.0,0.0,0.0,0.0,0.0,0.0,0.0,-0.000512107275426,-0.00049021031009,0.000454675871879,0.01,0.0,0.0,0.0,0.01,0.0,0.0,0.0,0.01,-4.58706903458,0.796032249928,-8.4279499054,0.01,0.0,0.0,0.0,0.01,0.0,0.0,0.0,0.01
1585289623444064575,8450,1585289623443298115,foot_imu_link,-0.195776343346,-0.156280651689,-0.640490174294,0.725961685181,0.0,0.0,0.0,0.0,0.0,0.0,0.0,0.0,0.0,-0.00285102799535,-0.00334028108045,-0.00200398731977,0.01,0.0,0.0,0.0,0.01,0.0,0.0,0.0,0.01,-4.5955581665,0.820761978626,-8.43830013275,0.01,0.0,0.0,0.0,0.01,0.0,0.0,0.0,0.01
1585289623468820823,8451,1585289623468214153,foot_imu_link,-0.195822507143,-0.156287029386,-0.640497207642,0.72594165802,0.0,0.0,0.0,0.0,0.0,0.0,0.0,0.0,0.0,-0.00425607338548,-0.00397405773401,-0.000349200796336,0.01,0.0,0.0,0.0,0.01,0.0,0.0,0.0,0.01,-4.5920085907,0.803214728832,-8.44389057159,0.01,0.0,0.0,0.0,0.01,0.0,0.0,0.0,0.01
1585289623493553467,8452,1585289623492984809,foot_imu_link,-0.195893704891,-0.156299591064,-0.640499711037,0.725917577744,0.0,0.0,0.0,0.0,0.0,0.0,0.0,0.0,0.0,-0.00291396584362,-0.00540920626372,-0.000726932194084,0.01,0.0,0.0,0.0,0.01,0.0,0.0,0.0,0.01,-4.58939981461,0.829527795315,-8.4312210083,0.01,0.0,0.0,0.0,0.01,0.0,0.0,0.0,0.01
1585289623518947991,8453,1585289623518305841,foot_imu_link,-0.195947349072,-0.156336352229,-0.640520513058,0.725876808167,0.0,0.0,0.0,0.0,0.0,0.0,0.0,0.0,0.0,-0.00225357245654,-0.00479036616161,-0.00230135582387,0.01,0.0,0.0,0.0,0.01,0.0,0.0,0.0,0.01,-4.61858654022,0.817457973957,-8.42899131775,0.01,0.0,0.0,0.0,0.01,0.0,0.0,0.0,0.01
1585289623544072860,8454,1585289623543319178,foot_imu_link,-0.195961281657,-0.156370818615,-0.640530467033,0.725856781006,0.0,0.0,0.0,0.0,0.0,0.0,0.0,0.0,0.0,-0.000229692086577,-0.00187022041064,-0.00138211948797,0.01,0.0,0.0,0.0,0.01,0.0,0.0,0.0,0.01,-4.6152009964,0.820805251598,-8.44733142853,0.01,0.0,0.0,0.0,0.01,0.0,0.0,0.0,0.01
1585289623568573361,8455,1585289623567928175,foot_imu_link,-0.19595760107,-0.156389594078,-0.640531659126,0.725852668285,0.0,0.0,0.0,0.0,0.0,0.0,0.0,0.0,0.0,0.000328672118485,-0.000127136707306,-0.000306778587401,0.01,0.0,0.0,0.0,0.01,0.0,0.0,0.0,0.01,-4.64314413071,0.79226231575,-8.43304634094,0.01,0.0,0.0,0.0,0.01,0.0,0.0,0.0,0.01
1585289623594647972,8456,1585289623593272892,foot_imu_link,-0.195953905582,-0.156399339437,-0.640530347824,0.72585272789,0.0,0.0,0.0,0.0,0.0,0.0,0.0,0.0,0.0,0.000665276311338,0.00116254773457,-0.00101646408439,0.01,0.0,0.0,0.0,0.01,0.0,0.0,0.0,0.01,-4.5953836441,0.816286087036,-8.4579668045,0.01,0.0,0.0,0.0,0.01,0.0,0.0,0.0,0.01
1585289623619056130,8457,1585289623617809486,foot_imu_link,-0.195931643248,-0.156398266554,-0.640525579453,0.725863218307,0.0,0.0,0.0,0.0,0.0,0.0,0.0,0.0,0.0,0.000242406502366,0.00103415211197,0.0011107060127,0.01,0.0,0.0,0.0,0.01,0.0,0.0,0.0,0.01,-4.6243686676,0.794085860252,-8.44499778748,0.01,0.0,0.0,0.0,0.01,0.0,0.0,0.0,0.01
1585289623642965555,8458,1585289623642632725,foot_imu_link,-0.195911630988,-0.156386062503,-0.640527129173,0.725869894028,0.0,0.0,0.0,0.0,0.0,0.0,0.0,0.0,0.0,0.00142185296863,0.00346835330129,-0.000650667119771,0.01,0.0,0.0,0.0,0.01,0.0,0.0,0.0,0.01,-4.61052799225,0.798851370811,-8.44085121155,0.01,0.0,0.0,0.0,0.01,0.0,0.0,0.0,0.01
1585289623667935969,8459,1585289623667629887,foot_imu_link,-0.195870220661,-0.156374529004,-0.640525758266,0.725884735584,0.0,0.0,0.0,0.0,0.0,0.0,0.0,0.0,0.0,-0.000532187521458,0.0025941170752,0.00182376196608,0.01,0.0,0.0,0.0,0.01,0.0,0.0,0.0,0.01,-4.60908842087,0.801481723785,-8.45331096649,0.01,0.0,0.0,0.0,0.01,0.0,0.0,0.0,0.01
1585289623693809234,8460,1585289623693182161,foot_imu_link,-0.195840910077,-0.156349122524,-0.640521228313,0.725902080536,0.0,0.0,0.0,0.0,0.0,0.0,0.0,0.0,0.0,0.00102315843105,0.00306474929675,0.00114953611046,0.01,0.0,0.0,0.0,0.01,0.0,0.0,0.0,0.01,-4.5903263092,0.823889613152,-8.40599060059,0.01,0.0,0.0,0.0,0.01,0.0,0.0,0.0,0.01
1585289623718592849,8461,1585289623718010770,foot_imu_link,-0.19580924511,-0.156333193183,-0.640497803688,0.725934803486,0.0,0.0,0.0,0.0,0.0,0.0,0.0,0.0,0.0,0.00195527030155,0.00342905754223,0.00140069890767,0.01,0.0,0.0,0.0,0.01,0.0,0.0,0.0,0.01,-4.60142993927,0.818862080574,-8.38735103607,0.01,0.0,0.0,0.0,0.01,0.0,0.0,0.0,0.01
1585289623743479599,8462,1585289623742889395,foot_imu_link,-0.195763468742,-0.156305134296,-0.640495955944,0.725954771042,0.0,0.0,0.0,0.0,0.0,0.0,0.0,0.0,0.0,0.00139032863081,0.0029494385235,0.00139400549233,0.01,0.0,0.0,0.0,0.01,0.0,0.0,0.0,0.01,-4.56591463089,0.831585109234,-8.45698928833,0.01,0.0,0.0,0.0,0.01,0.0,0.0,0.0,0.01
1585289623768499633,8463,1585289623767872545,foot_imu_link,-0.195737168193,-0.156305596232,-0.640494525433,0.725963056087,0.0,0.0,0.0,0.0,0.0,0.0,0.0,0.0,0.0,0.000970508903265,0.000854523503222,-0.000339836347848,0.01,0.0,0.0,0.0,0.01,0.0,0.0,0.0,0.01,-4.62246847153,0.81144285202,-8.44200611115,0.01,0.0,0.0,0.0,0.01,0.0,0.0,0.0,0.01
1585289623793646616,8464,1585289623792718270,foot_imu_link,-0.195714280009,-0.156299218535,-0.640490114689,0.725974440575,0.0,0.0,0.0,0.0,0.0,0.0,0.0,0.0,0.0,0.000650606118143,0.00232699420303,0.000231785699725,0.01,0.0,0.0,0.0,0.01,0.0,0.0,0.0,0.01,-4.6063580513,0.808198094368,-8.44728088379,0.01,0.0,0.0,0.0,0.01,0.0,0.0,0.0,0.01
1585289623818212802,8465,1585289623817656660,foot_imu_link,-0.195698797703,-0.156288862228,-0.640493750572,0.72597771883,0.0,0.0,0.0,0.0,0.0,0.0,0.0,0.0,0.0,0.00014147348702,0.000432418775745,0.000527595635504,0.01,0.0,0.0,0.0,0.01,0.0,0.0,0.0,0.01,-4.6140165329,0.806610643864,-8.44062137604,0.01,0.0,0.0,0.0,0.01,0.0,0.0,0.0,0.01
1585289623843348698,8466,1585289623842748060,foot_imu_link,-0.195689573884,-0.156289324164,-0.640495538712,0.72597849369,0.0,0.0,0.0,0.0,0.0,0.0,0.0,0.0,0.0,-0.000743511132896,-0.00113854487427,0.00136693101376,0.01,0.0,0.0,0.0,0.01,0.0,0.0,0.0,0.01,-4.59796905518,0.826454877853,-8.43049812317,0.01,0.0,0.0,0.0,0.01,0.0,0.0,0.0,0.01
1585289623868315330,8467,1585289623867601972,foot_imu_link,-0.195693507791,-0.156291753054,-0.640486001968,0.72598528862,0.0,0.0,0.0,0.0,0.0,0.0,0.0,0.0,0.0,-0.000553401187062,-0.000571287353523,0.00145084317774,0.01,0.0,0.0,0.0,0.01,0.0,0.0,0.0,0.01,-4.61280155182,0.805758833885,-8.426197052,0.01,0.0,0.0,0.0,0.01,0.0,0.0,0.0,0.01
1585289623893846481,8468,1585289623892575193,foot_imu_link,-0.195704892278,-0.156295776367,-0.640487253666,0.72598028183,0.0,0.0,0.0,0.0,0.0,0.0,0.0,0.0,0.0,-0.000353145413101,2.3330328986e-05,0.000560408458114,0.01,0.0,0.0,0.0,0.01,0.0,0.0,0.0,0.01,-4.59945297241,0.795637607574,-8.42358875275,0.01,0.0,0.0,0.0,0.01,0.0,0.0,0.0,0.01
1585289623918488666,8469,1585289623917807137,foot_imu_link,-0.195693641901,-0.156295180321,-0.640497148037,0.725974678993,0.0,0.0,0.0,0.0,0.0,0.0,0.0,0.0,0.0,0.00120496097952,-0.000778544344939,-0.00037878844887,0.01,0.0,0.0,0.0,0.01,0.0,0.0,0.0,0.01,-4.57993030548,0.807884037495,-8.4421787262,0.01,0.0,0.0,0.0,0.01,0.0,0.0,0.0,0.01
1585289623943220621,8470,1585289623942578398,foot_imu_link,-0.195661485195,-0.156295001507,-0.640514492989,0.725968122482,0.0,0.0,0.0,0.0,0.0,0.0,0.0,0.0,0.0,0.0014612628147,0.00152836646885,0.000142510049045,0.01,0.0,0.0,0.0,0.01,0.0,0.0,0.0,0.01,-4.61045122147,0.814669907093,-8.43525505066,0.01,0.0,0.0,0.0,0.01,0.0,0.0,0.0,0.01
1585289623969089102,8471,1585289623967662730,foot_imu_link,-0.195625320077,-0.156286120415,-0.64052438736,0.725970983505,0.0,0.0,0.0,0.0,0.0,0.0,0.0,0.0,0.0,9.83066856861e-05,7.05030979589e-05,0.000218580011278,0.01,0.0,0.0,0.0,0.01,0.0,0.0,0.0,0.01,-4.59976100922,0.782328307629,-8.43892478943,0.01,0.0,0.0,0.0,0.01,0.0,0.0,0.0,0.01
1585289623992676442,8472,1585289623992256930,foot_imu_link,-0.195598900318,-0.156282871962,-0.64053940773,0.725965559483,0.0,0.0,0.0,0.0,0.0,0.0,0.0,0.0,0.0,0.000185118056834,0.000482444884256,0.000628055073321,0.01,0.0,0.0,0.0,0.01,0.0,0.0,0.0,0.01,-4.59899950027,0.815796673298,-8.43670940399,0.01,0.0,0.0,0.0,0.01,0.0,0.0,0.0,0.01
1585289624017382134,8473,1585289624017206944,foot_imu_link,-0.195578530431,-0.156280130148,-0.640552937984,0.725959777832,0.0,0.0,0.0,0.0,0.0,0.0,0.0,0.0,0.0,-0.00132498238236,0.0023120273836,-0.000202531926334,0.01,0.0,0.0,0.0,0.01,0.0,0.0,0.0,0.01,-4.62620592117,0.787212371826,-8.44506645203,0.01,0.0,0.0,0.0,0.01,0.0,0.0,0.0,0.01
1585289624042587356,8474,1585289624042171973,foot_imu_link,-0.195534646511,-0.156265884638,-0.640560507774,0.725967943668,0.0,0.0,0.0,0.0,0.0,0.0,0.0,0.0,0.0,0.000427388586104,0.00432520359755,0.000933649484068,0.01,0.0,0.0,0.0,0.01,0.0,0.0,0.0,0.01,-4.60885238647,0.789173185825,-8.46801376343,0.01,0.0,0.0,0.0,0.01,0.0,0.0,0.0,0.01
1585289624068112389,8475,1585289624067461564,foot_imu_link,-0.195491939783,-0.15622445941,-0.64056801796,0.725981712341,0.0,0.0,0.0,0.0,0.0,0.0,0.0,0.0,0.0,-0.000530432909727,0.00441268272698,0.00115059036762,0.01,0.0,0.0,0.0,0.01,0.0,0.0,0.0,0.01,-4.61937618256,0.79060447216,-8.45009803772,0.01,0.0,0.0,0.0,0.01,0.0,0.0,0.0,0.01
1585289624094436394,8476,1585289624093800433,foot_imu_link,-0.195467323065,-0.156192451715,-0.640575826168,0.725988328457,0.0,0.0,0.0,0.0,0.0,0.0,0.0,0.0,0.0,0.000226352363825,0.00407983362675,0.00102751422673,0.01,0.0,0.0,0.0,0.01,0.0,0.0,0.0,0.01,-4.6093878746,0.81293118,-8.44594860077,0.01,0.0,0.0,0.0,0.01,0.0,0.0,0.0,0.01
1585289624118251262,8477,1585289624117609554,foot_imu_link,-0.195445999503,-0.156180843711,-0.640561878681,0.726008951664,0.0,0.0,0.0,0.0,0.0,0.0,0.0,0.0,0.0,-0.000477110035717,0.000676483847201,0.00369433080778,0.01,0.0,0.0,0.0,0.01,0.0,0.0,0.0,0.01,-4.5876750946,0.785659193993,-8.44075489044,0.01,0.0,0.0,0.0,0.01,0.0,0.0,0.0,0.01
1585289624144072443,8478,1585289624143399591,foot_imu_link,-0.195437639952,-0.156154736876,-0.640533447266,0.726041793823,0.0,0.0,0.0,0.0,0.0,0.0,0.0,0.0,0.0,0.0025016576983,0.00285802432336,0.000927332788706,0.01,0.0,0.0,0.0,0.01,0.0,0.0,0.0,0.01,-4.72231006622,0.883923947811,-8.45575904846,0.01,0.0,0.0,0.0,0.01,0.0,0.0,0.0,0.01
1585289624169393224,8479,1585289624168656348,foot_imu_link,-0.195452362299,-0.156156629324,-0.640522778034,0.726046919823,0.0,0.0,0.0,0.0,0.0,0.0,0.0,0.0,0.0,-0.00039073266089,0.000369831686839,0.000478898640722,0.01,0.0,0.0,0.0,0.01,0.0,0.0,0.0,0.01,-4.58191728592,0.806508183479,-8.42740249634,0.01,0.0,0.0,0.0,0.01,0.0,0.0,0.0,0.01
1585289624193807198,8480,1585289624193278543,foot_imu_link,-0.195452362299,-0.156163737178,-0.640519738197,0.726048111916,0.0,0.0,0.0,0.0,0.0,0.0,0.0,0.0,0.0,0.000241964124143,-0.000777590496,-0.000393487978727,0.01,0.0,0.0,0.0,0.01,0.0,0.0,0.0,0.01,-4.57402801514,0.810528278351,-8.44483280182,0.01,0.0,0.0,0.0,0.01,0.0,0.0,0.0,0.01
1585289624218667337,8481,1585289624218163420,foot_imu_link,-0.195462271571,-0.156186848879,-0.640509009361,0.72604984045,0.0,0.0,0.0,0.0,0.0,0.0,0.0,0.0,0.0,-8.8625587523e-05,-0.00386122101918,-0.000247607938945,0.01,0.0,0.0,0.0,0.01,0.0,0.0,0.0,0.01,-4.58346939087,0.799570679665,-8.42071533203,0.01,0.0,0.0,0.0,0.01,0.0,0.0,0.0,0.01
1585289624244060230,8482,1585289624243438423,foot_imu_link,-0.19550909102,-0.156223356724,-0.640511095524,0.726027548313,0.0,0.0,0.0,0.0,0.0,0.0,0.0,0.0,0.0,-0.00176730006933,-0.00503225950524,-0.000580256339163,0.01,0.0,0.0,0.0,0.01,0.0,0.0,0.0,0.01,-4.55941963196,0.808846890926,-8.41605377197,0.01,0.0,0.0,0.0,0.01,0.0,0.0,0.0,0.01
1585289624268930469,8483,1585289624268296697,foot_imu_link,-0.195572480559,-0.156262263656,-0.640511870384,0.726001441479,0.0,0.0,0.0,0.0,0.0,0.0,0.0,0.0,0.0,-0.00192470569164,-0.00510739535093,-0.00141352461651,0.01,0.0,0.0,0.0,0.01,0.0,0.0,0.0,0.01,-4.59425449371,0.784242987633,-8.43164348602,0.01,0.0,0.0,0.0,0.01,0.0,0.0,0.0,0.01
1585289624293545023,8484,1585289624293060187,foot_imu_link,-0.195639446378,-0.156309872866,-0.640518963337,0.725966930389,0.0,0.0,0.0,0.0,0.0,0.0,0.0,0.0,0.0,-0.00172530952841,-0.00567575683817,-0.00338778528385,0.01,0.0,0.0,0.0,0.01,0.0,0.0,0.0,0.01,-4.61916160583,0.802056252956,-8.45798397064,0.01,0.0,0.0,0.0,0.01,0.0,0.0,0.0,0.01
1585289624318592548,8485,1585289624318074493,foot_imu_link,-0.195692941546,-0.156357824802,-0.640528976917,0.72593331337,0.0,0.0,0.0,0.0,0.0,0.0,0.0,0.0,0.0,-0.00175873935223,-0.0049988143146,-0.00361083191819,0.01,0.0,0.0,0.0,0.01,0.0,0.0,0.0,0.01,-4.61980342865,0.83466809988,-8.44950771332,0.01,0.0,0.0,0.0,0.01,0.0,0.0,0.0,0.01
1585289624343780929,8486,1585289624343268613,foot_imu_link,-0.195726796985,-0.156401365995,-0.640534877777,0.725909590721,0.0,0.0,0.0,0.0,0.0,0.0,0.0,0.0,0.0,-2.51717865467e-05,-0.00305148260668,-0.00222824001685,0.01,0.0,0.0,0.0,0.01,0.0,0.0,0.0,0.01,-4.64192867279,0.794455230236,-8.46510601044,0.01,0.0,0.0,0.0,0.01,0.0,0.0,0.0,0.01
1585289624368589563,8487,1585289624368031463,foot_imu_link,-0.195731535554,-0.156411379576,-0.640553891659,0.725889444351,0.0,0.0,0.0,0.0,0.0,0.0,0.0,0.0,0.0,0.000248023308814,0.00180214759894,-0.00182384531945,0.01,0.0,0.0,0.0,0.01,0.0,0.0,0.0,0.01,-4.59468126297,0.805027186871,-8.45771026611,0.01,0.0,0.0,0.0,0.01,0.0,0.0,0.0,0.01
1585289624394243486,8488,1585289624393048981,foot_imu_link,-0.195729926229,-0.156427025795,-0.640552818775,0.725887417793,0.0,0.0,0.0,0.0,0.0,0.0,0.0,0.0,0.0,-1.95065513253e-05,-0.00148663832806,0.000287319999188,0.01,0.0,0.0,0.0,0.01,0.0,0.0,0.0,0.01,-4.58038377762,0.809001684189,-8.44116401672,0.01,0.0,0.0,0.0,0.01,0.0,0.0,0.0,0.01
1585289624418696944,8489,1585289624417933184,foot_imu_link,-0.195754095912,-0.156448602676,-0.64055711031,0.725872397423,0.0,0.0,0.0,0.0,0.0,0.0,0.0,0.0,0.0,-0.00211302470416,-0.00319872749969,-0.00141526898369,0.01,0.0,0.0,0.0,0.01,0.0,0.0,0.0,0.01,-4.58835029602,0.789522588253,-8.41923904419,0.01,0.0,0.0,0.0,0.01,0.0,0.0,0.0,0.01
1585289624443978846,8490,1585289624443154563,foot_imu_link,-0.195782825351,-0.156461536884,-0.640561461449,0.725858092308,0.0,0.0,0.0,0.0,0.0,0.0,0.0,0.0,0.0,-0.000109569169581,-0.00212488393299,-0.000467680860311,0.01,0.0,0.0,0.0,0.01,0.0,0.0,0.0,0.01,-4.60280895233,0.796198964119,-8.42880058289,0.01,0.0,0.0,0.0,0.01,0.0,0.0,0.0,0.01
1585289624468571452,8491,1585289624468031789,foot_imu_link,-0.195806756616,-0.156465098262,-0.640561938286,0.725850462914,0.0,0.0,0.0,0.0,0.0,0.0,0.0,0.0,0.0,-0.00162979960442,-0.0020764968358,0.000444580800831,0.01,0.0,0.0,0.0,0.01,0.0,0.0,0.0,0.01,-4.60986852646,0.818493008614,-8.43203926086,0.01,0.0,0.0,0.0,0.01,0.0,0.0,0.0,0.01
1585289624493493260,8492,1585289624492844341,foot_imu_link,-0.195836260915,-0.156484097242,-0.640563309193,0.725837171078,0.0,0.0,0.0,0.0,0.0,0.0,0.0,0.0,0.0,-0.00127951614559,-0.00447405315936,-0.00196171365678,0.01,0.0,0.0,0.0,0.01,0.0,0.0,0.0,0.01,-4.55325937271,0.821321606636,-8.40842247009,0.01,0.0,0.0,0.0,0.01,0.0,0.0,0.0,0.01
1585289624518569300,8493,1585289624517882996,foot_imu_link,-0.195889994502,-0.156519517303,-0.640572607517,0.725806832314,0.0,0.0,0.0,0.0,0.0,0.0,0.0,0.0,0.0,-0.0016110856086,-0.00280698528513,-0.00146692432463,0.01,0.0,0.0,0.0,0.01,0.0,0.0,0.0,0.01,-4.51220226288,0.791938960552,-8.44864559174,0.01,0.0,0.0,0.0,0.01,0.0,0.0,0.0,0.01
1585289624544178522,8494,1585289624542900540,foot_imu_link,-0.195923626423,-0.156544774771,-0.640569269657,0.725795269012,0.0,0.0,0.0,0.0,0.0,0.0,0.0,0.0,0.0,-0.00165128149092,-0.0032435785979,0.00067886384204,0.01,0.0,0.0,0.0,0.01,0.0,0.0,0.0,0.01,-4.57687568665,0.789400577545,-8.44675731659,0.01,0.0,0.0,0.0,0.01,0.0,0.0,0.0,0.01
1585289624568432980,8495,1585289624567854546,foot_imu_link,-0.195922657847,-0.156543269753,-0.640571177006,0.72579407692,0.0,0.0,0.0,0.0,0.0,0.0,0.0,0.0,0.0,0.000412485562265,2.12561571971e-05,-0.000827056821436,0.01,0.0,0.0,0.0,0.01,0.0,0.0,0.0,0.01,-4.603703022,0.832272708416,-8.42240905762,0.01,0.0,0.0,0.0,0.01,0.0,0.0,0.0,0.01
1585289624593760633,8496,1585289624592941634,foot_imu_link,-0.195905074477,-0.156536802649,-0.64056956768,0.725801765919,0.0,0.0,0.0,0.0,0.0,0.0,0.0,0.0,0.0,0.000949941575527,0.000483381794766,0.00068681454286,0.01,0.0,0.0,0.0,0.01,0.0,0.0,0.0,0.01,-4.60388231277,0.787910401821,-8.44163513184,0.01,0.0,0.0,0.0,0.01,0.0,0.0,0.0,0.01
1585289624618620547,8497,1585289624617723652,foot_imu_link,-0.195882260799,-0.156513363123,-0.640566110611,0.725815951824,0.0,0.0,0.0,0.0,0.0,0.0,0.0,0.0,0.0,-0.0002953838557,0.00332299480215,0.00215424178168,0.01,0.0,0.0,0.0,0.01,0.0,0.0,0.0,0.01,-4.60171604156,0.789183199406,-8.44604110718,0.01,0.0,0.0,0.0,0.01,0.0,0.0,0.0,0.01
1585289624643569483,8498,1585289624642946348,foot_imu_link,-0.195861503482,-0.156482443213,-0.640570104122,0.725824713707,0.0,0.0,0.0,0.0,0.0,0.0,0.0,0.0,0.0,-0.000879876315594,0.00226731435396,0.001469922252,0.01,0.0,0.0,0.0,0.01,0.0,0.0,0.0,0.01,-4.61395120621,0.807850599289,-8.41038894653,0.01,0.0,0.0,0.0,0.01,0.0,0.0,0.0,0.01
1585289624667788029,8499,1585289624667538517,foot_imu_link,-0.195836216211,-0.156450107694,-0.64055365324,0.725853085518,0.0,0.0,0.0,0.0,0.0,0.0,0.0,0.0,0.0,0.000342027284205,0.00246320804581,0.00180983589962,0.01,0.0,0.0,0.0,0.01,0.0,0.0,0.0,0.01,-4.6257185936,0.82160949707,-8.42823219299,0.01,0.0,0.0,0.0,0.01,0.0,0.0,0.0,0.01
1585289624692838475,8500,1585289624692498186,foot_imu_link,-0.195809483528,-0.156421989202,-0.640554487705,0.725865542889,0.0,0.0,0.0,0.0,0.0,0.0,0.0,0.0,0.0,0.000661217607558,0.00405282480642,0.000669465400279,0.01,0.0,0.0,0.0,0.01,0.0,0.0,0.0,0.01,-4.6141872406,0.805533051491,-8.44080638885,0.01,0.0,0.0,0.0,0.01,0.0,0.0,0.0,0.01
1585289624718387569,8501,1585289624717736815,foot_imu_link,-0.195770785213,-0.156394541264,-0.640551567078,0.725884497166,0.0,0.0,0.0,0.0,0.0,0.0,0.0,0.0,0.0,0.00180614367127,0.00397376809269,0.00226569315419,0.01,0.0,0.0,0.0,0.01,0.0,0.0,0.0,0.01,-4.57975244522,0.789687871933,-8.43304634094,0.01,0.0,0.0,0.0,0.01,0.0,0.0,0.0,0.01
1585289624743542776,8502,1585289624742912909,foot_imu_link,-0.195718184114,-0.156370520592,-0.640538692474,0.725915133953,0.0,0.0,0.0,0.0,0.0,0.0,0.0,0.0,0.0,0.00288201868534,0.00411689188331,0.00255426205695,0.01,0.0,0.0,0.0,0.01,0.0,0.0,0.0,0.01,-4.62214994431,0.797024786472,-8.45297431946,0.01,0.0,0.0,0.0,0.01,0.0,0.0,0.0,0.01
1585289624768516604,8503,1585289624767840192,foot_imu_link,-0.195663824677,-0.15634432435,-0.640529751778,0.725943446159,0.0,0.0,0.0,0.0,0.0,0.0,0.0,0.0,0.0,0.00240937061608,0.00396101176739,0.00104008195922,0.01,0.0,0.0,0.0,0.01,0.0,0.0,0.0,0.01,-4.58664941788,0.78978061676,-8.43955802917,0.01,0.0,0.0,0.0,0.01,0.0,0.0,0.0,0.01
1585289624793919017,8504,1585289624792549937,foot_imu_link,-0.195607155561,-0.15632134676,-0.640518963337,0.725973188877,0.0,0.0,0.0,0.0,0.0,0.0,0.0,0.0,0.0,0.000882064923644,0.00403665285558,0.00070903962478,0.01,0.0,0.0,0.0,0.01,0.0,0.0,0.0,0.01,-4.61785173416,0.797945976257,-8.42424869537,0.01,0.0,0.0,0.0,0.01,0.0,0.0,0.0,0.01
1585289624818447574,8505,1585289624817762860,foot_imu_link,-0.195554494858,-0.156283602118,-0.640520393848,0.725994169712,0.0,0.0,0.0,0.0,0.0,0.0,0.0,0.0,0.0,0.000705414451659,0.00541973114014,0.00132656330243,0.01,0.0,0.0,0.0,0.01,0.0,0.0,0.0,0.01,-4.47018384933,0.817556083202,-8.38680458069,0.01,0.0,0.0,0.0,0.01,0.0,0.0,0.0,0.01
1585289624843387605,8506,1585289624842802398,foot_imu_link,-0.195501998067,-0.156244829297,-0.640528261662,0.726009786129,0.0,0.0,0.0,0.0,0.0,0.0,0.0,0.0,0.0,0.00069890357554,0.00558655802161,0.00244548590854,0.01,0.0,0.0,0.0,0.01,0.0,0.0,0.0,0.01,-4.44206666946,0.792150616646,-8.35573005676,0.01,0.0,0.0,0.0,0.01,0.0,0.0,0.0,0.01
1585289624868328173,8507,1585289624867682306,foot_imu_link,-0.195432558656,-0.156218454242,-0.640512287617,0.726048231125,0.0,0.0,0.0,0.0,0.0,0.0,0.0,0.0,0.0,0.00412137573585,0.00358001538552,0.00145353237167,0.01,0.0,0.0,0.0,0.01,0.0,0.0,0.0,0.01,-4.60981893539,0.787885427475,-8.51782226562,0.01,0.0,0.0,0.0,0.01,0.0,0.0,0.0,0.01
1585289624893439891,8508,1585289624892638752,foot_imu_link,-0.195343509316,-0.156199723482,-0.640504360199,0.726083159447,0.0,0.0,0.0,0.0,0.0,0.0,0.0,0.0,0.0,0.00744259590283,0.00505598075688,0.000511111691594,0.01,0.0,0.0,0.0,0.01,0.0,0.0,0.0,0.01,-4.63460350037,0.83066958189,-8.48733139038,0.01,0.0,0.0,0.0,0.01,0.0,0.0,0.0,0.01
1585289624918415156,8509,1585289624917444509,foot_imu_link,-0.195276856422,-0.156179174781,-0.64049077034,0.726117551327,0.0,0.0,0.0,0.0,0.0,0.0,0.0,0.0,0.0,0.00231306580827,0.00443500326946,0.00360443815589,0.01,0.0,0.0,0.0,0.01,0.0,0.0,0.0,0.01,-4.50563383102,0.792721271515,-8.40817451477,0.01,0.0,0.0,0.0,0.01,0.0,0.0,0.0,0.01
1585289624943385776,8510,1585289624942404866,foot_imu_link,-0.19508318603,-0.156242132187,-0.6405351758,0.726116895676,0.0,0.0,0.0,0.0,0.0,0.0,0.0,0.0,0.0,0.0200931020081,0.00243863649666,-0.0133115556091,0.01,0.0,0.0,0.0,0.01,0.0,0.0,0.0,0.01,-4.49219560623,0.850466132164,-8.39441490173,0.01,0.0,0.0,0.0,0.01,0.0,0.0,0.0,0.01
1585289624967982835,8511,1585289624967349064,foot_imu_link,-0.194872573018,-0.156406745315,-0.640625417233,0.726058423519,0.0,0.0,0.0,0.0,0.0,0.0,0.0,0.0,0.0,0.00887598190457,-0.00245728343725,-0.00731556443498,0.01,0.0,0.0,0.0,0.01,0.0,0.0,0.0,0.01,-4.7457447052,0.676865398884,-8.48808479309,0.01,0.0,0.0,0.0,0.01,0.0,0.0,0.0,0.01
1585289624992953624,8512,1585289624992329749,foot_imu_link,-0.194855988026,-0.156452193856,-0.640621125698,0.726056754589,0.0,0.0,0.0,0.0,0.0,0.0,0.0,0.0,0.0,0.000635678879917,-0.00334255816415,-0.00182014517486,0.01,0.0,0.0,0.0,0.01,0.0,0.0,0.0,0.01,-4.50115394592,0.788974523544,-8.4428730011,0.01,0.0,0.0,0.0,0.01,0.0,0.0,0.0,0.01
1585289625018021581,8513,1585289625017419836,foot_imu_link,-0.194839790463,-0.156467363238,-0.640630424023,0.726049721241,0.0,0.0,0.0,0.0,0.0,0.0,0.0,0.0,0.0,0.00164201110601,0.00466595124453,-0.000988916493952,0.01,0.0,0.0,0.0,0.01,0.0,0.0,0.0,0.01,-4.68016195297,0.730188131332,-8.37897205353,0.01,0.0,0.0,0.0,0.01,0.0,0.0,0.0,0.01
1585289625043001361,8514,1585289625042397895,foot_imu_link,-0.19483178854,-0.156465277076,-0.640637993813,0.726045668125,0.0,0.0,0.0,0.0,0.0,0.0,0.0,0.0,0.0,-0.00123308412731,0.000920689082704,0.000385644380003,0.01,0.0,0.0,0.0,0.01,0.0,0.0,0.0,0.01,-4.60213470459,0.719147562981,-8.45916748047,0.01,0.0,0.0,0.0,0.01,0.0,0.0,0.0,0.01
1585289625068116635,8515,1585289625067476615,foot_imu_link,-0.194843366742,-0.156448155642,-0.640627205372,0.726055681705,0.0,0.0,0.0,0.0,0.0,0.0,0.0,0.0,0.0,-0.00219848286361,0.000760258291848,0.00138976378366,0.01,0.0,0.0,0.0,0.01,0.0,0.0,0.0,0.01,-4.67169618607,0.782900094986,-8.46405601501,0.01,0.0,0.0,0.0,0.01,0.0,0.0,0.0,0.01
1585289625093111912,8516,1585289625092426012,foot_imu_link,-0.194885164499,-0.156436786056,-0.640617012978,0.726055920124,0.0,0.0,0.0,0.0,0.0,0.0,0.0,0.0,0.0,-0.00227051414549,-0.00257804617286,0.000549897551537,0.01,0.0,0.0,0.0,0.01,0.0,0.0,0.0,0.01,-4.57093906403,0.794611096382,-8.43981361389,0.01,0.0,0.0,0.0,0.01,0.0,0.0,0.0,0.01
1585289625118195537,8517,1585289625117448309,foot_imu_link,-0.194940820336,-0.156425669789,-0.640614926815,0.726045191288,0.0,0.0,0.0,0.0,0.0,0.0,0.0,0.0,0.0,-0.00418048445135,-0.000806994037703,0.000232279766351,0.01,0.0,0.0,0.0,0.01,0.0,0.0,0.0,0.01,-4.58149385452,0.780769348145,-8.42748641968,0.01,0.0,0.0,0.0,0.01,0.0,0.0,0.0,0.01
1585289625143385560,8518,1585289625142230331,foot_imu_link,-0.194988951087,-0.156400099397,-0.640607714653,0.726044118404,0.0,0.0,0.0,0.0,0.0,0.0,0.0,0.0,0.0,-0.00469640828669,0.00037253042683,0.000459013972431,0.01,0.0,0.0,0.0,0.01,0.0,0.0,0.0,0.01,-4.61917114258,0.759409308434,-8.42721748352,0.01,0.0,0.0,0.0,0.01,0.0,0.0,0.0,0.01
1585289625167935778,8519,1585289625167142545,foot_imu_link,-0.195041641593,-0.156361356378,-0.640596628189,0.72604817152,0.0,0.0,0.0,0.0,0.0,0.0,0.0,0.0,0.0,-0.00485652405769,-8.54852842167e-05,0.000757957808673,0.01,0.0,0.0,0.0,0.01,0.0,0.0,0.0,0.01,-4.5638756752,0.786326408386,-8.46958732605,0.01,0.0,0.0,0.0,0.01,0.0,0.0,0.0,0.01
1585289625193381367,8520,1585289625192568617,foot_imu_link,-0.195103690028,-0.156309396029,-0.640592515469,0.726046264172,0.0,0.0,0.0,0.0,0.0,0.0,0.0,0.0,0.0,-0.0077944509685,-0.00027175876312,0.00203452026471,0.01,0.0,0.0,0.0,0.01,0.0,0.0,0.0,0.01,-4.61735153198,0.789160490036,-8.47868347168,0.01,0.0,0.0,0.0,0.01,0.0,0.0,0.0,0.01
1585289625218034324,8521,1585289625217380928,foot_imu_link,-0.195179283619,-0.156256973743,-0.640579164028,0.72604906559,0.0,0.0,0.0,0.0,0.0,0.0,0.0,0.0,0.0,-0.00542905181646,-0.00139247404877,0.00330289267004,0.01,0.0,0.0,0.0,0.01,0.0,0.0,0.0,0.01,-4.59323978424,0.809370934963,-8.45676040649,0.01,0.0,0.0,0.0,0.01,0.0,0.0,0.0,0.01
1585289625243978766,8522,1585289625243092128,foot_imu_link,-0.195240452886,-0.156240016222,-0.640573322773,0.726041376591,0.0,0.0,0.0,0.0,0.0,0.0,0.0,0.0,0.0,-0.00293341930956,-0.00446635857224,-0.00221934402362,0.01,0.0,0.0,0.0,0.01,0.0,0.0,0.0,0.01,-4.53765392303,0.831252336502,-8.37933444977,0.01,0.0,0.0,0.0,0.01,0.0,0.0,0.0,0.01
1585289625267740789,8523,1585289625267105397,foot_imu_link,-0.195331454277,-0.156273901463,-0.640592515469,0.725992619991,0.0,0.0,0.0,0.0,0.0,0.0,0.0,0.0,0.0,-0.00721405446529,-0.00913350004703,-0.00340957916342,0.01,0.0,0.0,0.0,0.01,0.0,0.0,0.0,0.01,-4.54062128067,0.759727060795,-8.3877696991,0.01,0.0,0.0,0.0,0.01,0.0,0.0,0.0,0.01
1585289625293969423,8524,1585289625293324581,foot_imu_link,-0.195495143533,-0.156317725778,-0.640631258488,0.725904941559,0.0,0.0,0.0,0.0,0.0,0.0,0.0,0.0,0.0,-0.0140386065468,-0.0112809278071,-0.00210021622479,0.01,0.0,0.0,0.0,0.01,0.0,0.0,0.0,0.01,-4.40221214294,0.721147418022,-8.33255767822,0.01,0.0,0.0,0.0,0.01,0.0,0.0,0.0,0.01
1585289625317948923,8525,1585289625317251205,foot_imu_link,-0.195804536343,-0.156395569444,-0.640653789043,0.725784957409,0.0,0.0,0.0,0.0,0.0,0.0,0.0,0.0,0.0,-0.0181890837848,-0.0261706337333,-0.0057642091997,0.01,0.0,0.0,0.0,0.01,0.0,0.0,0.0,0.01,-4.5211763382,0.76116257906,-8.4447927475,0.01,0.0,0.0,0.0,0.01,0.0,0.0,0.0,0.01
1585289625344327089,8526,1585289625343148323,foot_imu_link,-0.196163624525,-0.156480506063,-0.640659570694,0.725664615631,0.0,0.0,0.0,0.0,0.0,0.0,0.0,0.0,0.0,-0.0176681876183,-0.0231041591614,-0.00390940066427,0.01,0.0,0.0,0.0,0.01,0.0,0.0,0.0,0.01,-4.67453098297,0.84371894598,-8.41495037079,0.01,0.0,0.0,0.0,0.01,0.0,0.0,0.0,0.01
1585289625367109114,8527,1585289625366638558,foot_imu_link,-0.196469143033,-0.156544446945,-0.64066106081,0.725566744804,0.0,0.0,0.0,0.0,0.0,0.0,0.0,0.0,0.0,-0.0182350203395,-0.016893081367,-0.00247376458719,0.01,0.0,0.0,0.0,0.01,0.0,0.0,0.0,0.01,-4.65795660019,0.799582600594,-8.44267177582,0.01,0.0,0.0,0.0,0.01,0.0,0.0,0.0,0.01
1585289625392761373,8528,1585289625392506323,foot_imu_link,-0.196699202061,-0.156514540315,-0.640663266182,0.725508928299,0.0,0.0,0.0,0.0,0.0,0.0,0.0,0.0,0.0,-0.0142353456467,-0.00799874681979,0.000323117244989,0.01,0.0,0.0,0.0,0.01,0.0,0.0,0.0,0.01,-4.6404838562,0.786553859711,-8.47261810303,0.01,0.0,0.0,0.0,0.01,0.0,0.0,0.0,0.01
1585289625417795846,8529,1585289625417537781,foot_imu_link,-0.196852564812,-0.15648715198,-0.640634477139,0.725498735905,0.0,0.0,0.0,0.0,0.0,0.0,0.0,0.0,0.0,-0.00841815490276,-0.00576834660023,0.00342907803133,0.01,0.0,0.0,0.0,0.01,0.0,0.0,0.0,0.01,-4.63922977448,0.843305826187,-8.45669651031,0.01,0.0,0.0,0.0,0.01,0.0,0.0,0.0,0.01
1585289625443731086,8530,1585289625443123026,foot_imu_link,-0.196935325861,-0.156445071101,-0.640609025955,0.725507795811,0.0,0.0,0.0,0.0,0.0,0.0,0.0,0.0,0.0,-0.00583987962455,-0.000362392747775,0.00288558006287,0.01,0.0,0.0,0.0,0.01,0.0,0.0,0.0,0.01,-4.62235927582,0.79557043314,-8.42982673645,0.01,0.0,0.0,0.0,0.01,0.0,0.0,0.0,0.01
1585289625468760310,8531,1585289625467838379,foot_imu_link,-0.196943759918,-0.15642285347,-0.640622615814,0.725498259068,0.0,0.0,0.0,0.0,0.0,0.0,0.0,0.0,0.0,4.26266342402e-06,0.00375954248011,-0.000814619008452,0.01,0.0,0.0,0.0,0.01,0.0,0.0,0.0,0.01,-4.62549781799,0.819688856602,-8.42319488525,0.01,0.0,0.0,0.0,0.01,0.0,0.0,0.0,0.01
1585289625493838689,8532,1585289625492832150,foot_imu_link,-0.196925729513,-0.156411275268,-0.640624046326,0.725504457951,0.0,0.0,0.0,0.0,0.0,0.0,0.0,0.0,0.0,-0.00149257853627,0.00172718463,0.000224467832595,0.01,0.0,0.0,0.0,0.01,0.0,0.0,0.0,0.01,-4.61792707443,0.783208310604,-8.39872932434,0.01,0.0,0.0,0.0,0.01,0.0,0.0,0.0,0.01
1585289625518503849,8533,1585289625517840327,foot_imu_link,-0.19693236053,-0.15638153255,-0.640620291233,0.725512325764,0.0,0.0,0.0,0.0,0.0,0.0,0.0,0.0,0.0,-0.00278271734715,-0.000377940188628,0.00132293766364,0.01,0.0,0.0,0.0,0.01,0.0,0.0,0.0,0.01,-4.6053647995,0.778640925884,-8.44673252106,0.01,0.0,0.0,0.0,0.01,0.0,0.0,0.0,0.01
1585289625543521433,8534,1585289625542826063,foot_imu_link,-0.196938887239,-0.156360700727,-0.64061319828,0.725521326065,0.0,0.0,0.0,0.0,0.0,0.0,0.0,0.0,0.0,-0.00100663863122,0.000745866214857,-6.2717590481e-05,0.01,0.0,0.0,0.0,0.01,0.0,0.0,0.0,0.01,-4.63890028,0.806620776653,-8.45729255676,0.01,0.0,0.0,0.0,0.01,0.0,0.0,0.0,0.01
1585289625568502939,8535,1585289625567774177,foot_imu_link,-0.196931317449,-0.156339675188,-0.64061409235,0.72552716732,0.0,0.0,0.0,0.0,0.0,0.0,0.0,0.0,0.0,-0.000737658701837,0.00212129484862,-0.000617673620582,0.01,0.0,0.0,0.0,0.01,0.0,0.0,0.0,0.01,-4.59336328506,0.813523352146,-8.4150686264,0.01,0.0,0.0,0.0,0.01,0.0,0.0,0.0,0.01
1585289625593663828,8536,1585289625592931514,foot_imu_link,-0.196920692921,-0.156335219741,-0.640625119209,0.72552126646,0.0,0.0,0.0,0.0,0.0,0.0,0.0,0.0,0.0,-0.000446831807494,-0.00138625386171,-0.00130034331232,0.01,0.0,0.0,0.0,0.01,0.0,0.0,0.0,0.01,-4.60442638397,0.81660926342,-8.44416618347,0.01,0.0,0.0,0.0,0.01,0.0,0.0,0.0,0.01
1585289625618500138,8537,1585289625617640732,foot_imu_link,-0.196927398443,-0.15635176003,-0.640617072582,0.72552293539,0.0,0.0,0.0,0.0,0.0,0.0,0.0,0.0,0.0,-0.00127724464983,-0.00199570599943,-0.000466845929623,0.01,0.0,0.0,0.0,0.01,0.0,0.0,0.0,0.01,-4.59489250183,0.812492728233,-8.42093849182,0.01,0.0,0.0,0.0,0.01,0.0,0.0,0.0,0.01
1585289625643360043,8538,1585289625642671027,foot_imu_link,-0.196954935789,-0.156385824084,-0.640619695187,0.725505828857,0.0,0.0,0.0,0.0,0.0,0.0,0.0,0.0,0.0,0.000255500897765,-0.00398979429156,-0.00175617914647,0.01,0.0,0.0,0.0,0.01,0.0,0.0,0.0,0.01,-4.60659122467,0.830518603325,-8.45082473755,0.01,0.0,0.0,0.0,0.01,0.0,0.0,0.0,0.01
1585289625668519236,8539,1585289625667565182,foot_imu_link,-0.196965411305,-0.156443029642,-0.640623390675,0.725487351418,0.0,0.0,0.0,0.0,0.0,0.0,0.0,0.0,0.0,0.00258909538388,-0.00339249894023,-0.00304305856116,0.01,0.0,0.0,0.0,0.01,0.0,0.0,0.0,0.01,-4.60569190979,0.814405500889,-8.43259239197,0.01,0.0,0.0,0.0,0.01,0.0,0.0,0.0,0.01
1585289625692518217,8540,1585289625692195368,foot_imu_link,-0.196940779686,-0.156511232257,-0.640649616718,0.725456237793,0.0,0.0,0.0,0.0,0.0,0.0,0.0,0.0,0.0,0.00398296862841,-0.0026142206043,-0.00483139883727,0.01,0.0,0.0,0.0,0.01,0.0,0.0,0.0,0.01,-4.62086057663,0.817154288292,-8.39359855652,0.01,0.0,0.0,0.0,0.01,0.0,0.0,0.0,0.01
1585289625717455015,8541,1585289625717279196,foot_imu_link,-0.196918204427,-0.156597629189,-0.640668749809,0.725426793098,0.0,0.0,0.0,0.0,0.0,0.0,0.0,0.0,0.0,0.00394537579268,-0.00513263884932,-0.00610238220543,0.01,0.0,0.0,0.0,0.01,0.0,0.0,0.0,0.01,-4.62329816818,0.812831521034,-8.46116638184,0.01,0.0,0.0,0.0,0.01,0.0,0.0,0.0,0.01
1585289625743326434,8542,1585289625742734242,foot_imu_link,-0.196906790137,-0.156660884619,-0.640706956387,0.725382447243,0.0,0.0,0.0,0.0,0.0,0.0,0.0,0.0,0.0,0.00223898654804,-0.00273779570125,-0.00410143379122,0.01,0.0,0.0,0.0,0.01,0.0,0.0,0.0,0.01,-4.61561584473,0.793141245842,-8.41226577759,0.01,0.0,0.0,0.0,0.01,0.0,0.0,0.0,0.01
1585289625768440071,8543,1585289625767814096,foot_imu_link,-0.196905180812,-0.156704127789,-0.640717089176,0.725364565849,0.0,0.0,0.0,0.0,0.0,0.0,0.0,0.0,0.0,0.00135263148695,-0.00225110258907,-0.00352636026219,0.01,0.0,0.0,0.0,0.01,0.0,0.0,0.0,0.01,-4.63390874863,0.833030641079,-8.43115615845,0.01,0.0,0.0,0.0,0.01,0.0,0.0,0.0,0.01
1585289625793109330,8544,1585289625792459741,foot_imu_link,-0.196882456541,-0.156735107303,-0.64072561264,0.725356578827,0.0,0.0,0.0,0.0,0.0,0.0,0.0,0.0,0.0,0.00211630715057,0.000945447245613,-0.0022982317023,0.01,0.0,0.0,0.0,0.01,0.0,0.0,0.0,0.01,-4.64579629898,0.814533412457,-8.44464874268,0.01,0.0,0.0,0.0,0.01,0.0,0.0,0.0,0.01
1585289625818232560,8545,1585289625817523024,foot_imu_link,-0.196828767657,-0.156750187278,-0.640728414059,0.725365400314,0.0,0.0,0.0,0.0,0.0,0.0,0.0,0.0,0.0,0.00356965698302,0.00199811160564,-0.00130842346698,0.01,0.0,0.0,0.0,0.01,0.0,0.0,0.0,0.01,-4.61755657196,0.803087949753,-8.43678283691,0.01,0.0,0.0,0.0,0.01,0.0,0.0,0.0,0.01
1585289625843330610,8546,1585289625842536972,foot_imu_link,-0.196741625667,-0.156767770648,-0.640751540661,0.725364863873,0.0,0.0,0.0,0.0,0.0,0.0,0.0,0.0,0.0,0.00576029485092,0.00466667348519,-0.0030394278001,0.01,0.0,0.0,0.0,0.01,0.0,0.0,0.0,0.01,-4.61766433716,0.795483231544,-8.41333198547,0.01,0.0,0.0,0.0,0.01,0.0,0.0,0.0,0.01
1585289625868265795,8547,1585289625867605408,foot_imu_link,-0.196666091681,-0.156793236732,-0.640759110451,0.725373148918,0.0,0.0,0.0,0.0,0.0,0.0,0.0,0.0,0.0,0.00340695446357,0.00243538338691,-0.00108793051913,0.01,0.0,0.0,0.0,0.01,0.0,0.0,0.0,0.01,-4.64395999908,0.803759455681,-8.42861461639,0.01,0.0,0.0,0.0,0.01,0.0,0.0,0.0,0.01
1585289625893257828,8548,1585289625892558679,foot_imu_link,-0.196536779404,-0.156796574593,-0.640755295753,0.725410759449,0.0,0.0,0.0,0.0,0.0,0.0,0.0,0.0,0.0,0.0107517456636,0.0102199567482,-0.0011011371389,0.01,0.0,0.0,0.0,0.01,0.0,0.0,0.0,0.01,-4.66491889954,0.868730902672,-8.42888069153,0.01,0.0,0.0,0.0,0.01,0.0,0.0,0.0,0.01
1585289625918542788,8549,1585289625917594835,foot_imu_link,-0.196286603808,-0.156797364354,-0.64078181982,0.725454926491,0.0,0.0,0.0,0.0,0.0,0.0,0.0,0.0,0.0,0.0175501480699,0.0161636155099,-0.00487230205908,0.01,0.0,0.0,0.0,0.01,0.0,0.0,0.0,0.01,-4.65285778046,0.809917986393,-8.45261764526,0.01,0.0,0.0,0.0,0.01,0.0,0.0,0.0,0.01
1585289625943023679,8550,1585289625942391659,foot_imu_link,-0.195905163884,-0.156808897853,-0.640817344189,0.725524127483,0.0,0.0,0.0,0.0,0.0,0.0,0.0,0.0,0.0,0.0265815444291,0.0212644897401,-0.00515316706151,0.01,0.0,0.0,0.0,0.01,0.0,0.0,0.0,0.01,-4.6308221817,0.814650714397,-8.44927120209,0.01,0.0,0.0,0.0,0.01,0.0,0.0,0.0,0.01
1585289625968159260,8551,1585289625967526280,foot_imu_link,-0.195470169187,-0.156822249293,-0.640868961811,0.725593030453,0.0,0.0,0.0,0.0,0.0,0.0,0.0,0.0,0.0,0.0272372886539,0.0239264760166,-0.00515857618302,0.01,0.0,0.0,0.0,0.01,0.0,0.0,0.0,0.01,-4.6166601181,0.802726864815,-8.44596767426,0.01,0.0,0.0,0.0,0.01,0.0,0.0,0.0,0.01
1585289625993367037,8552,1585289625992377231,foot_imu_link,-0.195015743375,-0.156829178333,-0.640924572945,0.725664615631,0.0,0.0,0.0,0.0,0.0,0.0,0.0,0.0,0.0,0.0286968797445,0.0243652220815,-0.00450789462775,0.01,0.0,0.0,0.0,0.01,0.0,0.0,0.0,0.01,-4.61073827744,0.786828637123,-8.40821456909,0.01,0.0,0.0,0.0,0.01,0.0,0.0,0.0,0.01
1585289626017962809,8553,1585289626017281751,foot_imu_link,-0.194520831108,-0.156897813082,-0.641004800797,0.72571182251,0.0,0.0,0.0,0.0,0.0,0.0,0.0,0.0,0.0,0.0312311220914,0.0162153467536,-0.0130924098194,0.01,0.0,0.0,0.0,0.01,0.0,0.0,0.0,0.01,-4.44708538055,0.746883392334,-8.37616729736,0.01,0.0,0.0,0.0,0.01,0.0,0.0,0.0,0.01
1585289626043038232,8554,1585289626042341804,foot_imu_link,-0.194170624018,-0.157108411193,-0.641153037548,0.725629091263,0.0,0.0,0.0,0.0,0.0,0.0,0.0,0.0,0.0,0.0275255404413,0.00394515227526,-0.0253645554185,0.01,0.0,0.0,0.0,0.01,0.0,0.0,0.0,0.01,-4.56859064102,0.747978150845,-8.42002773285,0.01,0.0,0.0,0.0,0.01,0.0,0.0,0.0,0.01
1585289626068138013,8555,1585289626067506589,foot_imu_link,-0.193825006485,-0.157369717956,-0.641344845295,0.72549533844,0.0,0.0,0.0,0.0,0.0,0.0,0.0,0.0,0.0,0.0315434262156,0.00668188463897,-0.0270041264594,0.01,0.0,0.0,0.0,0.01,0.0,0.0,0.0,0.01,-4.63003444672,0.726655900478,-8.44575595856,0.01,0.0,0.0,0.0,0.01,0.0,0.0,0.0,0.01
1585289626093126702,8556,1585289626092225004,foot_imu_link,-0.19346550107,-0.15762577951,-0.641546070576,0.725357830524,0.0,0.0,0.0,0.0,0.0,0.0,0.0,0.0,0.0,0.0269514601678,0.00380109250546,-0.0261481311172,0.01,0.0,0.0,0.0,0.01,0.0,0.0,0.0,0.01,-4.59368801117,0.728004693985,-8.43922233582,0.01,0.0,0.0,0.0,0.01,0.0,0.0,0.0,0.01
1585289626118096054,8557,1585289626117509095,foot_imu_link,-0.193218499422,-0.15785446763,-0.641707181931,0.725231289864,0.0,0.0,0.0,0.0,0.0,0.0,0.0,0.0,0.0,0.0210008062422,-0.000677801494021,-0.0227872431278,0.01,0.0,0.0,0.0,0.01,0.0,0.0,0.0,0.01,-4.59036111832,0.723817646503,-8.42633247375,0.01,0.0,0.0,0.0,0.01,0.0,0.0,0.0,0.01
1585289626142707764,8558,1585289626142077906,foot_imu_link,-0.193049117923,-0.15805259347,-0.64188593626,0.72507506609,0.0,0.0,0.0,0.0,0.0,0.0,0.0,0.0,0.0,0.0119093451649,-0.00279393233359,-0.0238911863416,0.01,0.0,0.0,0.0,0.01,0.0,0.0,0.0,0.01,-4.60098695755,0.710923790932,-8.46138954163,0.01,0.0,0.0,0.0,0.01,0.0,0.0,0.0,0.01
1585289626168007268,8559,1585289626167363109,foot_imu_link,-0.19291689992,-0.158224746585,-0.642092227936,0.724890112877,0.0,0.0,0.0,0.0,0.0,0.0,0.0,0.0,0.0,0.012483545579,-0.00202928530052,-0.0270423069596,0.01,0.0,0.0,0.0,0.01,0.0,0.0,0.0,0.01,-4.60510826111,0.768673062325,-8.42568397522,0.01,0.0,0.0,0.0,0.01,0.0,0.0,0.0,0.01
1585289626193139873,8560,1585289626192316396,foot_imu_link,-0.192805185914,-0.158391341567,-0.642329394817,0.724673211575,0.0,0.0,0.0,0.0,0.0,0.0,0.0,0.0,0.0,0.00458950083703,-0.00916892103851,-0.0289017241448,0.01,0.0,0.0,0.0,0.01,0.0,0.0,0.0,0.01,-4.57307243347,0.722914159298,-8.41956710815,0.01,0.0,0.0,0.0,0.01,0.0,0.0,0.0,0.01
1585289626217845273,8561,1585289626217282389,foot_imu_link,-0.192817404866,-0.158598706126,-0.64252692461,0.724449515343,0.0,0.0,0.0,0.0,0.0,0.0,0.0,0.0,0.0,0.00477468408644,-0.0129147032276,-0.0245620198548,0.01,0.0,0.0,0.0,0.01,0.0,0.0,0.0,0.01,-4.59476184845,0.716084122658,-8.43277263641,0.01,0.0,0.0,0.0,0.01,0.0,0.0,0.0,0.01
1585289626242837838,8562,1585289626242174562,foot_imu_link,-0.192628651857,-0.159036368132,-0.642830848694,0.724134087563,0.0,0.0,0.0,0.0,0.0,0.0,0.0,0.0,0.0,0.0503921322525,-0.0226981472224,-0.061077605933,0.01,0.0,0.0,0.0,0.01,0.0,0.0,0.0,0.01,-4.31824159622,0.761326789856,-8.22755336761,0.01,0.0,0.0,0.0,0.01,0.0,0.0,0.0,0.01
1585289626267714790,8563,1585289626267001896,foot_imu_link,-0.19164301455,-0.160435006022,-0.643481075764,0.723509371281,0.0,0.0,0.0,0.0,0.0,0.0,0.0,0.0,0.0,0.132014259696,-0.0285709928721,-0.118072621524,0.01,0.0,0.0,0.0,0.01,0.0,0.0,0.0,0.01,-4.65124464035,0.782599329948,-8.41709136963,0.01,0.0,0.0,0.0,0.01,0.0,0.0,0.0,0.01
1585289626293176694,8564,1585289626292351665,foot_imu_link,-0.190597474575,-0.161796689034,-0.64416462183,0.722873747349,0.0,0.0,0.0,0.0,0.0,0.0,0.0,0.0,0.0,0.0943898409605,-0.019008340314,-0.0969995111227,0.01,0.0,0.0,0.0,0.01,0.0,0.0,0.0,0.01,-4.69994115829,0.561808466911,-8.5106678009,0.01,0.0,0.0,0.0,0.01,0.0,0.0,0.0,0.01
1585289626317841483,8565,1585289626317189493,foot_imu_link,-0.190002635121,-0.162659347057,-0.644635915756,0.722416460514,0.0,0.0,0.0,0.0,0.0,0.0,0.0,0.0,0.0,0.0453308150172,-0.0173920728266,-0.0520210564137,0.01,0.0,0.0,0.0,0.01,0.0,0.0,0.0,0.01,-4.69633674622,0.477022528648,-8.45871353149,0.01,0.0,0.0,0.0,0.01,0.0,0.0,0.0,0.01
1585289626342571269,8566,1585289626341946787,foot_imu_link,-0.189769878983,-0.163090273738,-0.644881725311,0.722160995007,0.0,0.0,0.0,0.0,0.0,0.0,0.0,0.0,0.0,0.0166601520032,-0.0163440220058,-0.0276447106153,0.01,0.0,0.0,0.0,0.01,0.0,0.0,0.0,0.01,-4.57313251495,0.49187490344,-8.46723556519,0.01,0.0,0.0,0.0,0.01,0.0,0.0,0.0,0.01
1585289626367554369,8567,1585289626366784995,foot_imu_link,-0.189930513501,-0.163291856647,-0.644947052002,0.722014963627,0.0,0.0,0.0,0.0,0.0,0.0,0.0,0.0,0.0,-0.011234193109,-0.02124106884,-0.00562496948987,0.01,0.0,0.0,0.0,0.01,0.0,0.0,0.0,0.01,-4.68592977524,0.548963546753,-8.43184661865,0.01,0.0,0.0,0.0,0.01,0.0,0.0,0.0,0.01
1585289626393080914,8568,1585289626391777218,foot_imu_link,-0.190228149295,-0.163286045194,-0.64491558075,0.721966028214,0.0,0.0,0.0,0.0,0.0,0.0,0.0,0.0,0.0,-0.021644666791,-0.0107612647116,0.0081350132823,0.01,0.0,0.0,0.0,0.01,0.0,0.0,0.0,0.01,-4.71558666229,0.633241891861,-8.47730827332,0.01,0.0,0.0,0.0,0.01,0.0,0.0,0.0,0.01
1585289626417555059,8569,1585289626416815667,foot_imu_link,-0.190473109484,-0.163049116731,-0.644858360291,0.722006082535,0.0,0.0,0.0,0.0,0.0,0.0,0.0,0.0,0.0,-0.0267318990082,0.0115474835038,0.0148576488718,0.01,0.0,0.0,0.0,0.01,0.0,0.0,0.0,0.01,-4.69216442108,0.532166719437,-8.45878791809,0.01,0.0,0.0,0.0,0.01,0.0,0.0,0.0,0.01
1585289626442456932,8570,1585289626441697680,foot_imu_link,-0.190748855472,-0.162611201406,-0.644781947136,0.722100257874,0.0,0.0,0.0,0.0,0.0,0.0,0.0,0.0,0.0,-0.0401756875217,0.0109751448035,0.0219510234892,0.01,0.0,0.0,0.0,0.01,0.0,0.0,0.0,0.01,-4.61611843109,0.557799696922,-8.44843864441,0.01,0.0,0.0,0.0,0.01,0.0,0.0,0.0,0.01
1585289626467712531,8571,1585289626467055327,foot_imu_link,-0.191029384732,-0.162191316485,-0.644682109356,0.722209692001,0.0,0.0,0.0,0.0,0.0,0.0,0.0,0.0,0.0,-0.0290810205042,0.00967673491687,0.0184694342315,0.01,0.0,0.0,0.0,0.01,0.0,0.0,0.0,0.01,-4.67576551437,0.641499519348,-8.45246315002,0.01,0.0,0.0,0.0,0.01,0.0,0.0,0.0,0.01
1585289626492546735,8572,1585289626491903689,foot_imu_link,-0.191123574972,-0.161855250597,-0.644608974457,0.722325384617,0.0,0.0,0.0,0.0,0.0,0.0,0.0,0.0,0.0,-0.0135458027944,0.0188779868186,0.0138945952058,0.01,0.0,0.0,0.0,0.01,0.0,0.0,0.0,0.01,-4.68749046326,0.669800937176,-8.45608520508,0.01,0.0,0.0,0.0,0.01,0.0,0.0,0.0,0.01
1585289626517487493,8573,1585289626516893373,foot_imu_link,-0.191010385752,-0.161575168371,-0.644537448883,0.722481846809,0.0,0.0,0.0,0.0,0.0,0.0,0.0,0.0,0.0,-0.000918225385249,0.026441283524,0.0125573314726,0.01,0.0,0.0,0.0,0.01,0.0,0.0,0.0,0.01,-4.61824703217,0.661832094193,-8.38184070587,0.01,0.0,0.0,0.0,0.01,0.0,0.0,0.0,0.01
1585289626542439928,8574,1585289626541763460,foot_imu_link,-0.190868869424,-0.161381855607,-0.644494593143,0.722600698471,0.0,0.0,0.0,0.0,0.0,0.0,0.0,0.0,0.0,0.000974019989371,0.0138422390446,0.00687682861462,0.01,0.0,0.0,0.0,0.01,0.0,0.0,0.0,0.01,-4.62017869949,0.673356771469,-8.42548561096,0.01,0.0,0.0,0.0,0.01,0.0,0.0,0.0,0.01
1585289626567604620,8575,1585289626566920199,foot_imu_link,-0.190643683076,-0.161409080029,-0.644495308399,0.722653388977,0.0,0.0,0.0,0.0,0.0,0.0,0.0,0.0,0.0,0.0336189344525,0.00920374691486,-0.010951789096,0.01,0.0,0.0,0.0,0.01,0.0,0.0,0.0,0.01,-4.60470199585,0.774773597717,-8.41283798218,0.01,0.0,0.0,0.0,0.01,0.0,0.0,0.0,0.01
1585289626593522726,8576,1585289626592736689,foot_imu_link,-0.189576238394,-0.162052080035,-0.644766151905,0.722548782825,0.0,0.0,0.0,0.0,0.0,0.0,0.0,0.0,0.0,0.124781861901,0.0305762663484,-0.0702578648925,0.01,0.0,0.0,0.0,0.01,0.0,0.0,0.0,0.01,-4.60873365402,0.967726111412,-8.40411376953,0.01,0.0,0.0,0.0,0.01,0.0,0.0,0.0,0.01
1585289626618452184,8577,1585289626617705732,foot_imu_link,-0.187844499946,-0.16300407052,-0.645268797874,0.722338140011,0.0,0.0,0.0,0.0,0.0,0.0,0.0,0.0,0.0,0.139642372727,0.0409310944378,-0.0717246383429,0.01,0.0,0.0,0.0,0.01,0.0,0.0,0.0,0.01,-4.66902828217,0.514789938927,-8.48775100708,0.01,0.0,0.0,0.0,0.01,0.0,0.0,0.0,0.01
1585289626643335063,8578,1585289626642574787,foot_imu_link,-0.186248108745,-0.163783416152,-0.645685732365,0.722202658653,0.0,0.0,0.0,0.0,0.0,0.0,0.0,0.0,0.0,0.111783385277,0.0351130180061,-0.0598342865705,0.01,0.0,0.0,0.0,0.01,0.0,0.0,0.0,0.01,-4.42301845551,0.493559598923,-8.48821544647,0.01,0.0,0.0,0.0,0.01,0.0,0.0,0.0,0.01
1585289626668460663,8579,1585289626667458443,foot_imu_link,-0.185117423534,-0.164396032691,-0.646022200584,0.722053170204,0.0,0.0,0.0,0.0,0.0,0.0,0.0,0.0,0.0,0.0801084861159,0.021397266537,-0.0421041473746,0.01,0.0,0.0,0.0,0.01,0.0,0.0,0.0,0.01,-4.6184387207,0.503657579422,-8.48584747314,0.01,0.0,0.0,0.0,0.01,0.0,0.0,0.0,0.01
1585289626693636027,8580,1585289626692514928,foot_imu_link,-0.184192508459,-0.164908692241,-0.646268308163,0.721952617168,0.0,0.0,0.0,0.0,0.0,0.0,0.0,0.0,0.0,0.0688000768423,0.0173559803516,-0.0342716835439,0.01,0.0,0.0,0.0,0.01,0.0,0.0,0.0,0.01,-4.59811878204,0.407439351082,-8.49372386932,0.01,0.0,0.0,0.0,0.01,0.0,0.0,0.0,0.01
1585289626718099448,8581,1585289626717619453,foot_imu_link,-0.183447346091,-0.165292650461,-0.646453857422,0.721888422966,0.0,0.0,0.0,0.0,0.0,0.0,0.0,0.0,0.0,0.0502159185708,0.0133708752692,-0.0254998616874,0.01,0.0,0.0,0.0,0.01,0.0,0.0,0.0,0.01,-4.46215105057,0.414519071579,-8.46121311188,0.01,0.0,0.0,0.0,0.01,0.0,0.0,0.0,0.01
1585289626742796782,8582,1585289626742342345,foot_imu_link,-0.183021187782,-0.165588349104,-0.646617352962,0.721782386303,0.0,0.0,0.0,0.0,0.0,0.0,0.0,0.0,0.0,0.0322055593133,0.00666353804991,-0.0231863968074,0.01,0.0,0.0,0.0,0.01,0.0,0.0,0.0,0.01,-4.59282445908,0.453119158745,-8.48400306702,0.01,0.0,0.0,0.0,0.01,0.0,0.0,0.0,0.01
1585289626768016541,8583,1585289626767412745,foot_imu_link,-0.182553872466,-0.165828108788,-0.646786689758,0.72169393301,0.0,0.0,0.0,0.0,0.0,0.0,0.0,0.0,0.0,0.0386876650155,0.0144870895892,-0.0225894544274,0.01,0.0,0.0,0.0,0.01,0.0,0.0,0.0,0.01,-4.56667089462,0.446018904448,-8.48679256439,0.01,0.0,0.0,0.0,0.01,0.0,0.0,0.0,0.01
1585289626793416233,8584,1585289626792477802,foot_imu_link,-0.182133555412,-0.166008129716,-0.646923005581,0.721636533737,0.0,0.0,0.0,0.0,0.0,0.0,0.0,0.0,0.0,0.0265885703266,0.0121803097427,-0.0135627640411,0.01,0.0,0.0,0.0,0.01,0.0,0.0,0.0,0.01,-4.62830638885,0.402694225311,-8.51739406586,0.01,0.0,0.0,0.0,0.01,0.0,0.0,0.0,0.01
1585289626818487851,8585,1585289626817755444,foot_imu_link,-0.181785061955,-0.16610853374,-0.647014141083,0.721619606018,0.0,0.0,0.0,0.0,0.0,0.0,0.0,0.0,0.0,0.0253726281226,0.014633661136,-0.00902573484927,0.01,0.0,0.0,0.0,0.01,0.0,0.0,0.0,0.01,-4.61300039291,0.441981047392,-8.47460365295,0.01,0.0,0.0,0.0,0.01,0.0,0.0,0.0,0.01
1585289626843358177,8586,1585289626842612858,foot_imu_link,-0.181410491467,-0.166211813688,-0.647073686123,0.721636772156,0.0,0.0,0.0,0.0,0.0,0.0,0.0,0.0,0.0,0.0286742374301,0.0104762641713,-0.00632352381945,0.01,0.0,0.0,0.0,0.01,0.0,0.0,0.0,0.01,-4.5289850235,0.434878408909,-8.49360275269,0.01,0.0,0.0,0.0,0.01,0.0,0.0,0.0,0.01
1585289626868204003,8587,1585289626867646828,foot_imu_link,-0.180873066187,-0.166364982724,-0.647141516209,0.72167545557,0.0,0.0,0.0,0.0,0.0,0.0,0.0,0.0,0.0,0.0469579324126,0.022887095809,-0.0116134714335,0.01,0.0,0.0,0.0,0.01,0.0,0.0,0.0,0.01,-4.52770233154,0.449236780405,-8.47871589661,0.01,0.0,0.0,0.0,0.01,0.0,0.0,0.0,0.01
1585289626893395865,8588,1585289626892639026,foot_imu_link,-0.180090203881,-0.166675776243,-0.647257685661,0.721695363522,0.0,0.0,0.0,0.0,0.0,0.0,0.0,0.0,0.0,0.0693565532565,0.0267072245479,-0.0216854885221,0.01,0.0,0.0,0.0,0.01,0.0,0.0,0.0,0.01,-4.57909965515,0.422059953213,-8.45231342316,0.01,0.0,0.0,0.0,0.01,0.0,0.0,0.0,0.01
1585289626918323291,8589,1585289626917658227,foot_imu_link,-0.179267257452,-0.16703209281,-0.647374272346,0.721713364124,0.0,0.0,0.0,0.0,0.0,0.0,0.0,0.0,0.0,0.0613746792078,0.0223228093237,-0.0175465289503,0.01,0.0,0.0,0.0,0.01,0.0,0.0,0.0,0.01,-4.52780103683,0.393352329731,-8.5070438385,0.01,0.0,0.0,0.0,0.01,0.0,0.0,0.0,0.01
1585289626943091793,8590,1585289626942415935,foot_imu_link,-0.17855104804,-0.167373031378,-0.64745414257,0.721740245819,0.0,0.0,0.0,0.0,0.0,0.0,0.0,0.0,0.0,0.0548420548439,0.0175033789128,-0.015005517751,0.01,0.0,0.0,0.0,0.01,0.0,0.0,0.0,0.01,-4.57005691528,0.375005781651,-8.55259513855,0.01,0.0,0.0,0.0,0.01,0.0,0.0,0.0,0.01
