%time,field.header.seq,field.header.stamp,field.header.frame_id,field.orientation.x,field.orientation.y,field.orientation.z,field.orientation.w,field.orientation_covariance0,field.orientation_covariance1,field.orientation_covariance2,field.orientation_covariance3,field.orientation_covariance4,field.orientation_covariance5,field.orientation_covariance6,field.orientation_covariance7,field.orientation_covariance8,field.angular_velocity.x,field.angular_velocity.y,field.angular_velocity.z,field.angular_velocity_covariance0,field.angular_velocity_covariance1,field.angular_velocity_covariance2,field.angular_velocity_covariance3,field.angular_velocity_covariance4,field.angular_velocity_covariance5,field.angular_velocity_covariance6,field.angular_velocity_covariance7,field.angular_velocity_covariance8,field.linear_acceleration.x,field.linear_acceleration.y,field.linear_acceleration.z,field.linear_acceleration_covariance0,field.linear_acceleration_covariance1,field.linear_acceleration_covariance2,field.linear_acceleration_covariance3,field.linear_acceleration_covariance4,field.linear_acceleration_covariance5,field.linear_acceleration_covariance6,field.linear_acceleration_covariance7,field.linear_acceleration_covariance8
1584954936793586490,2262,1584954936793327157,imu_link,0.0362219326198,-0.230214953423,0.606401562691,0.760240912437,0.0,0.0,0.0,0.0,0.0,0.0,0.0,0.0,0.0,0.0193392131478,0.0154360570014,-0.017440751195,0.01,0.0,0.0,0.0,0.01,0.0,0.0,0.0,0.01,-3.7327876091,2.18002963066,-8.48623180389,0.01,0.0,0.0,0.0,0.01,0.0,0.0,0.0,0.01
1584954936818587494,2263,1584954936818316424,imu_link,0.0364065021276,-0.229941904545,0.60627835989,0.760412991047,0.0,0.0,0.0,0.0,0.0,0.0,0.0,0.0,0.0,0.0226752292365,0.00645419117063,-0.0250223614275,0.01,0.0,0.0,0.0,0.01,0.0,0.0,0.0,0.01,-3.74797868729,2.15907979012,-8.51808834076,0.01,0.0,0.0,0.0,0.01,0.0,0.0,0.0,0.01
1584954936843538435,2264,1584954936843285941,imu_link,0.0366656668484,-0.229687035084,0.606139838696,0.760587990284,0.0,0.0,0.0,0.0,0.0,0.0,0.0,0.0,0.0,0.0259678773582,0.00500386254862,-0.0225025825202,0.01,0.0,0.0,0.0,0.01,0.0,0.0,0.0,0.01,-3.75734615326,2.1011967659,-8.54371070862,0.01,0.0,0.0,0.0,0.01,0.0,0.0,0.0,0.01
1584954936868651234,2265,1584954936868251045,imu_link,0.0369216166437,-0.229454323649,0.606019794941,0.760741472244,0.0,0.0,0.0,0.0,0.0,0.0,0.0,0.0,0.0,0.0235192626715,0.0029582742136,-0.0201748125255,0.01,0.0,0.0,0.0,0.01,0.0,0.0,0.0,0.01,-3.79279398918,2.10885310173,-8.55772781372,0.01,0.0,0.0,0.0,0.01,0.0,0.0,0.0,0.01
1584954936893754677,2266,1584954936893429431,imu_link,0.037174616009,-0.229266956449,0.605924487114,0.760861575603,0.0,0.0,0.0,0.0,0.0,0.0,0.0,0.0,0.0,0.0212457031012,0.0013191474136,-0.0154028944671,0.01,0.0,0.0,0.0,0.01,0.0,0.0,0.0,0.01,-3.79817914963,2.06865119934,-8.5338306427,0.01,0.0,0.0,0.0,0.01,0.0,0.0,0.0,0.01
1584954936919171088,2267,1584954936918595695,imu_link,0.0373589284718,-0.229102045298,0.605879247189,0.760938227177,0.0,0.0,0.0,0.0,0.0,0.0,0.0,0.0,0.0,0.0181561410427,0.00185554521158,-0.009017909877,0.01,0.0,0.0,0.0,0.01,0.0,0.0,0.0,0.01,-3.74546909332,2.07675647736,-8.50285625458,0.01,0.0,0.0,0.0,0.01,0.0,0.0,0.0,0.01
1584954936944156043,2268,1584954936943548218,imu_link,0.0375400222838,-0.228980720043,0.605847775936,0.760990858078,0.0,0.0,0.0,0.0,0.0,0.0,0.0,0.0,0.0,0.0154927801341,-0.00554178049788,-0.00846351496875,0.01,0.0,0.0,0.0,0.01,0.0,0.0,0.0,0.01,-3.72892212868,2.09441661835,-8.54065895081,0.01,0.0,0.0,0.0,0.01,0.0,0.0,0.0,0.01
1584954936969073122,2269,1584954936968539628,imu_link,0.0376267768443,-0.228928133845,0.605785012245,0.761052429676,0.0,0.0,0.0,0.0,0.0,0.0,0.0,0.0,0.0,-0.00130664370954,0.00519319111481,-0.00638084765524,0.01,0.0,0.0,0.0,0.01,0.0,0.0,0.0,0.01,-3.76363992691,2.04502058029,-8.5283870697,0.01,0.0,0.0,0.0,0.01,0.0,0.0,0.0,0.01
1584954936994423992,2270,1584954936993613057,imu_link,0.0376275330782,-0.228937983513,0.605733275414,0.761090576649,0.0,0.0,0.0,0.0,0.0,0.0,0.0,0.0,0.0,-0.00395488087088,-0.00382003095001,-0.00453826226294,0.01,0.0,0.0,0.0,0.01,0.0,0.0,0.0,0.01,-3.75767731667,2.09007811546,-8.56921482086,0.01,0.0,0.0,0.0,0.01,0.0,0.0,0.0,0.01
1584954937019899282,2271,1584954937018777810,imu_link,0.0375201068819,-0.22897259891,0.60567253828,0.761133730412,0.0,0.0,0.0,0.0,0.0,0.0,0.0,0.0,0.0,-0.0116337928921,0.00750416470692,-0.0042762439698,0.01,0.0,0.0,0.0,0.01,0.0,0.0,0.0,0.01,-3.7681889534,2.09759068489,-8.53276824951,0.01,0.0,0.0,0.0,0.01,0.0,0.0,0.0,0.01
1584954937043587784,2272,1584954937043225765,imu_link,0.0373743325472,-0.228973373771,0.60561299324,0.761188089848,0.0,0.0,0.0,0.0,0.0,0.0,0.0,0.0,0.0,-0.00737942382693,0.00730421580374,-0.00634738616645,0.01,0.0,0.0,0.0,0.01,0.0,0.0,0.0,0.01,-3.74765849113,2.139970541,-8.54039669037,0.01,0.0,0.0,0.0,0.01,0.0,0.0,0.0,0.01
1584954937068393501,2273,1584954937068097489,imu_link,0.0371773205698,-0.228925898671,0.605547785759,0.761263906956,0.0,0.0,0.0,0.0,0.0,0.0,0.0,0.0,0.0,-0.0135925905779,0.0181450564414,-0.00228239130229,0.01,0.0,0.0,0.0,0.01,0.0,0.0,0.0,0.01,-3.77799677849,2.07508897781,-8.52498531342,0.01,0.0,0.0,0.0,0.01,0.0,0.0,0.0,0.01
1584954937093377970,2274,1584954937093071429,imu_link,0.0369446761906,-0.228886261582,0.605528473854,0.761302530766,0.0,0.0,0.0,0.0,0.0,0.0,0.0,0.0,0.0,-0.010606110096,0.0113646890968,0.000643827021122,0.01,0.0,0.0,0.0,0.01,0.0,0.0,0.0,0.01,-3.74274778366,2.10258054733,-8.53998470306,0.01,0.0,0.0,0.0,0.01,0.0,0.0,0.0,0.01
1584954937118516618,2275,1584954937118168701,imu_link,0.0368269756436,-0.22889995575,0.605534136295,0.761299550533,0.0,0.0,0.0,0.0,0.0,0.0,0.0,0.0,0.0,-0.009231954813,0.00395120447502,0.00345210079104,0.01,0.0,0.0,0.0,0.01,0.0,0.0,0.0,0.01,-3.75714731216,2.09291124344,-8.5083322525,0.01,0.0,0.0,0.0,0.01,0.0,0.0,0.0,0.01
1584954937143403262,2276,1584954937143071389,imu_link,0.0365309044719,-0.228894993663,0.605562627316,0.761292695999,0.0,0.0,0.0,0.0,0.0,0.0,0.0,0.0,0.0,-0.019372548908,0.0193272139877,0.00665345368907,0.01,0.0,0.0,0.0,0.01,0.0,0.0,0.0,0.01,-3.75542259216,2.1556096077,-8.55501461029,0.01,0.0,0.0,0.0,0.01,0.0,0.0,0.0,0.01
1584954937168457492,2277,1584954937168111743,imu_link,0.0361327268183,-0.228824406862,0.605587184429,0.761313319206,0.0,0.0,0.0,0.0,0.0,0.0,0.0,0.0,0.0,-0.0240322090685,0.0271062999964,0.00719153089449,0.01,0.0,0.0,0.0,0.01,0.0,0.0,0.0,0.01,-3.7462015152,2.12554454803,-8.52335357666,0.01,0.0,0.0,0.0,0.01,0.0,0.0,0.0,0.01
1584954937193907906,2278,1584954937193091271,imu_link,0.035575479269,-0.228751689196,0.605592131615,0.761357486248,0.0,0.0,0.0,0.0,0.0,0.0,0.0,0.0,0.0,-0.0356121920049,0.0320330820978,0.00832790974528,0.01,0.0,0.0,0.0,0.01,0.0,0.0,0.0,0.01,-3.73674893379,2.15733957291,-8.5301618576,0.01,0.0,0.0,0.0,0.01,0.0,0.0,0.0,0.01
1584954937218341979,2279,1584954937218048519,imu_link,0.0348934046924,-0.228732824326,0.605601549149,0.761387169361,0.0,0.0,0.0,0.0,0.0,0.0,0.0,0.0,0.0,-0.0460415184498,0.0349934063852,0.0142307924107,0.01,0.0,0.0,0.0,0.01,0.0,0.0,0.0,0.01,-3.75343394279,2.12312817574,-8.52637672424,0.01,0.0,0.0,0.0,0.01,0.0,0.0,0.0,0.01
1584954937243306498,2280,1584954937243025407,imu_link,0.0343437828124,-0.228745698929,0.605579912663,0.761425495148,0.0,0.0,0.0,0.0,0.0,0.0,0.0,0.0,0.0,-0.0311966240406,0.0257134884596,0.00296210963279,0.01,0.0,0.0,0.0,0.01,0.0,0.0,0.0,0.01,-3.72274684906,2.12860918045,-8.53159713745,0.01,0.0,0.0,0.0,0.01,0.0,0.0,0.0,0.01
1584954937268355544,2281,1584954937267983853,imu_link,0.0338785909116,-0.228768572211,0.60553830862,0.761472702026,0.0,0.0,0.0,0.0,0.0,0.0,0.0,0.0,0.0,-0.0295088533312,0.0244465768337,0.00201209122315,0.01,0.0,0.0,0.0,0.01,0.0,0.0,0.0,0.01,-3.70164299011,2.13403296471,-8.5293264389,0.01,0.0,0.0,0.0,0.01,0.0,0.0,0.0,0.01
1584954937293297932,2282,1584954937292995257,imu_link,0.0331881940365,-0.228795617819,0.605500996113,0.761524498463,0.0,0.0,0.0,0.0,0.0,0.0,0.0,0.0,0.0,-0.0500363893807,0.0309885982424,0.00947663001716,0.01,0.0,0.0,0.0,0.01,0.0,0.0,0.0,0.01,-3.72420883179,2.14640021324,-8.55207538605,0.01,0.0,0.0,0.0,0.01,0.0,0.0,0.0,0.01
1584954937318245821,2283,1584954937317945631,imu_link,0.0324499644339,-0.228910773993,0.605473637581,0.761543571949,0.0,0.0,0.0,0.0,0.0,0.0,0.0,0.0,0.0,-0.0540781095624,0.0290436856449,0.0125308036804,0.01,0.0,0.0,0.0,0.01,0.0,0.0,0.0,0.01,-3.70568227768,2.19377160072,-8.54914474487,0.01,0.0,0.0,0.0,0.01,0.0,0.0,0.0,0.01
1584954937343230547,2284,1584954937342952063,imu_link,0.0316462516785,-0.228998050094,0.60548967123,0.76153844595,0.0,0.0,0.0,0.0,0.0,0.0,0.0,0.0,0.0,-0.0539746358991,0.0385967716575,0.0170525629073,0.01,0.0,0.0,0.0,0.01,0.0,0.0,0.0,0.01,-3.72692584991,2.2055170536,-8.53349781036,0.01,0.0,0.0,0.0,0.01,0.0,0.0,0.0,0.01
1584954937368239684,2285,1584954937367888461,imu_link,0.0309628527611,-0.22909848392,0.605523586273,0.761509299278,0.0,0.0,0.0,0.0,0.0,0.0,0.0,0.0,0.0,-0.0401930958033,0.0218368396163,0.013849276118,0.01,0.0,0.0,0.0,0.01,0.0,0.0,0.0,0.01,-3.65039634705,2.21446228027,-8.51041793823,0.01,0.0,0.0,0.0,0.01,0.0,0.0,0.0,0.01
1584954937393208003,2286,1584954937392874376,imu_link,0.0307093188167,-0.229168742895,0.605564057827,0.761466324329,0.0,0.0,0.0,0.0,0.0,0.0,0.0,0.0,0.0,-0.00942164752632,0.0344516448677,0.00384745374322,0.01,0.0,0.0,0.0,0.01,0.0,0.0,0.0,0.01,-3.72806930542,2.21971940994,-8.53757190704,0.01,0.0,0.0,0.0,0.01,0.0,0.0,0.0,0.01
1584954937418159023,2287,1584954937417861290,imu_link,0.0304369851947,-0.228987678885,0.605597317219,0.761505186558,0.0,0.0,0.0,0.0,0.0,0.0,0.0,0.0,0.0,-0.0109031107277,0.0111028319225,0.0057282098569,0.01,0.0,0.0,0.0,0.01,0.0,0.0,0.0,0.01,-3.66555905342,2.22000646591,-8.51196575165,0.01,0.0,0.0,0.0,0.01,0.0,0.0,0.0,0.01
1584954937443233730,2288,1584954937442853598,imu_link,0.0303552895784,-0.229142233729,0.605632066727,0.76143437624,0.0,0.0,0.0,0.0,0.0,0.0,0.0,0.0,0.0,-0.016573894769,-0.00635459786281,0.00841964222491,0.01,0.0,0.0,0.0,0.01,0.0,0.0,0.0,0.01,-3.6981716156,2.19576215744,-8.53891658783,0.01,0.0,0.0,0.0,0.01,0.0,0.0,0.0,0.01
1584954937468127432,2289,1584954937467818417,imu_link,0.0301497671753,-0.229300200939,0.60569101572,0.761348068714,0.0,0.0,0.0,0.0,0.0,0.0,0.0,0.0,0.0,-0.0163010004908,-0.000433999171946,0.0098222931847,0.01,0.0,0.0,0.0,0.01,0.0,0.0,0.0,0.01,-3.66039133072,2.21631741524,-8.53314781189,0.01,0.0,0.0,0.0,0.01,0.0,0.0,0.0,0.01
1584954937493198423,2290,1584954937492819629,imu_link,0.0302023459226,-0.229383185506,0.605722904205,0.761295616627,0.0,0.0,0.0,0.0,0.0,0.0,0.0,0.0,0.0,0.00780249992386,-0.0179773811251,-0.00177896441892,0.01,0.0,0.0,0.0,0.01,0.0,0.0,0.0,0.01,-3.66690349579,2.2238137722,-8.52097892761,0.01,0.0,0.0,0.0,0.01,0.0,0.0,0.0,0.01
1584954937518052710,2291,1584954937517762251,imu_link,0.0304880198091,-0.229484528303,0.605748593807,0.761233270168,0.0,0.0,0.0,0.0,0.0,0.0,0.0,0.0,0.0,0.0100534567609,-0.0223714523017,-0.000153120141476,0.01,0.0,0.0,0.0,0.01,0.0,0.0,0.0,0.01,-3.71078467369,2.20833015442,-8.52998638153,0.01,0.0,0.0,0.0,0.01,0.0,0.0,0.0,0.01
1584954937543011841,2292,1584954937542747413,imu_link,0.0307045057416,-0.22962410748,0.605813145638,0.761131107807,0.0,0.0,0.0,0.0,0.0,0.0,0.0,0.0,0.0,0.00596066657454,-0.0190991293639,0.00520685967058,0.01,0.0,0.0,0.0,0.01,0.0,0.0,0.0,0.01,-3.70662927628,2.19891476631,-8.53490924835,0.01,0.0,0.0,0.0,0.01,0.0,0.0,0.0,0.01
1584954937568152848,2293,1584954937567800666,imu_link,0.0308636222035,-0.22970752418,0.605923116207,0.761011898518,0.0,0.0,0.0,0.0,0.0,0.0,0.0,0.0,0.0,0.0212205909193,-0.0270342323929,0.000964055769145,0.01,0.0,0.0,0.0,0.01,0.0,0.0,0.0,0.01,-3.68445587158,2.30555415154,-8.61013126373,0.01,0.0,0.0,0.0,0.01,0.0,0.0,0.0,0.01
1584954937593094132,2294,1584954937592716085,imu_link,0.0310353655368,-0.22972881794,0.606045365334,0.760901153088,0.0,0.0,0.0,0.0,0.0,0.0,0.0,0.0,0.0,0.0188888777047,-0.0135002629831,0.00221054628491,0.01,0.0,0.0,0.0,0.01,0.0,0.0,0.0,0.01,-3.65870285034,2.17028403282,-8.50963401794,0.01,0.0,0.0,0.0,0.01,0.0,0.0,0.0,0.01
1584954937618084863,2295,1584954937617739808,imu_link,0.0309748053551,-0.229680374265,0.606164395809,0.760823369026,0.0,0.0,0.0,0.0,0.0,0.0,0.0,0.0,0.0,-0.00758713670075,0.007705679629,0.0141072552651,0.01,0.0,0.0,0.0,0.01,0.0,0.0,0.0,0.01,-3.69940376282,2.15832734108,-8.50379753113,0.01,0.0,0.0,0.0,0.01,0.0,0.0,0.0,0.01
1584954937643082378,2296,1584954937642710113,imu_link,0.0308205317706,-0.229679793119,0.606270551682,0.760745227337,0.0,0.0,0.0,0.0,0.0,0.0,0.0,0.0,0.0,-0.0157929472625,0.0126789594069,0.0148534793407,0.01,0.0,0.0,0.0,0.01,0.0,0.0,0.0,0.01,-3.66809511185,2.17606544495,-8.57094287872,0.01,0.0,0.0,0.0,0.01,0.0,0.0,0.0,0.01
1584954937667834096,2297,1584954937667648539,imu_link,0.0305663179606,-0.229731589556,0.606366157532,0.760663688183,0.0,0.0,0.0,0.0,0.0,0.0,0.0,0.0,0.0,-0.014290895313,0.00545305665582,0.0119932517409,0.01,0.0,0.0,0.0,0.01,0.0,0.0,0.0,0.01,-3.67833328247,2.22533893585,-8.51892280579,0.01,0.0,0.0,0.0,0.01,0.0,0.0,0.0,0.01
1584954937692812265,2298,1584954937692612105,imu_link,0.030321650207,-0.229741320014,0.606441855431,0.760610103607,0.0,0.0,0.0,0.0,0.0,0.0,0.0,0.0,0.0,-0.0154531374574,0.0100332908332,0.012217332609,0.01,0.0,0.0,0.0,0.01,0.0,0.0,0.0,0.01,-3.65331983566,2.2122926712,-8.51938247681,0.01,0.0,0.0,0.0,0.01,0.0,0.0,0.0,0.01
1584954937717717485,2299,1584954937717528000,imu_link,0.0301434304565,-0.229812681675,0.60647803545,0.76056689024,0.0,0.0,0.0,0.0,0.0,0.0,0.0,0.0,0.0,-0.0123240305111,0.00059588777367,0.00734582031146,0.01,0.0,0.0,0.0,0.01,0.0,0.0,0.0,0.01,-3.66984677315,2.22947764397,-8.51180362701,0.01,0.0,0.0,0.0,0.01,0.0,0.0,0.0,0.01
1584954937742983567,2300,1584954937742628903,imu_link,0.0299887564033,-0.229874148965,0.606507241726,0.760531127453,0.0,0.0,0.0,0.0,0.0,0.0,0.0,0.0,0.0,-0.0126138962805,0.00490583758801,0.00577441323549,0.01,0.0,0.0,0.0,0.01,0.0,0.0,0.0,0.01,-3.6771042347,2.21551036835,-8.50458526611,0.01,0.0,0.0,0.0,0.01,0.0,0.0,0.0,0.01
1584954937768468266,2301,1584954937767911241,imu_link,0.0298567973077,-0.229924455285,0.606529295444,0.760503590107,0.0,0.0,0.0,0.0,0.0,0.0,0.0,0.0,0.0,-0.0102478414774,0.000127705352497,0.00434448430315,0.01,0.0,0.0,0.0,0.01,0.0,0.0,0.0,0.01,-3.67120456696,2.24717998505,-8.51899051666,0.01,0.0,0.0,0.0,0.01,0.0,0.0,0.0,0.01
1584954937793512722,2302,1584954937792857595,imu_link,0.029741069302,-0.229951173067,0.606535315514,0.760495185852,0.0,0.0,0.0,0.0,0.0,0.0,0.0,0.0,0.0,-0.00672921631485,0.00561599154025,0.00212235143408,0.01,0.0,0.0,0.0,0.01,0.0,0.0,0.0,0.01,-3.68182396889,2.25425577164,-8.50569725037,0.01,0.0,0.0,0.0,0.01,0.0,0.0,0.0,0.01
1584954937819256170,2303,1584954937818068847,imu_link,0.0296730026603,-0.229902565479,0.606538534164,0.760509967804,0.0,0.0,0.0,0.0,0.0,0.0,0.0,0.0,0.0,0.000656737014651,0.00331405014731,0.000373570714146,0.01,0.0,0.0,0.0,0.01,0.0,0.0,0.0,0.01,-3.66515922546,2.24068069458,-8.56277656555,0.01,0.0,0.0,0.0,0.01,0.0,0.0,0.0,0.01
1584954937843479357,2304,1584954937842899431,imu_link,0.0296729002148,-0.229877278209,0.606524169445,0.760529100895,0.0,0.0,0.0,0.0,0.0,0.0,0.0,0.0,0.0,0.00255670771003,-0.00134449847974,-0.00395293300971,0.01,0.0,0.0,0.0,0.01,0.0,0.0,0.0,0.01,-3.69858050346,2.24855184555,-8.54788017273,0.01,0.0,0.0,0.0,0.01,0.0,0.0,0.0,0.01
1584954937868668589,2305,1584954937867959925,imu_link,0.0297042578459,-0.229872152209,0.606501460075,0.760547399521,0.0,0.0,0.0,0.0,0.0,0.0,0.0,0.0,0.0,0.00196460448205,-0.0016914664302,-0.00285499775782,0.01,0.0,0.0,0.0,0.01,0.0,0.0,0.0,0.01,-3.6565322876,2.21451091766,-8.54136657715,0.01,0.0,0.0,0.0,0.01,0.0,0.0,0.0,0.01
1584954937893218416,2306,1584954937892696797,imu_link,0.029801286757,-0.229863837361,0.606476068497,0.760566413403,0.0,0.0,0.0,0.0,0.0,0.0,0.0,0.0,0.0,0.00659590400755,-0.00830484367907,-0.00590906618163,0.01,0.0,0.0,0.0,0.01,0.0,0.0,0.0,0.01,-3.6595788002,2.24631929398,-8.54232406616,0.01,0.0,0.0,0.0,0.01,0.0,0.0,0.0,0.01
1584954937917663093,2307,1584954937917448083,imu_link,0.0299847330898,-0.229888185859,0.606420695782,0.760596096516,0.0,0.0,0.0,0.0,0.0,0.0,0.0,0.0,0.0,0.00853415951133,-0.0137309683487,-0.0106989461929,0.01,0.0,0.0,0.0,0.01,0.0,0.0,0.0,0.01,-3.67176651955,2.23855924606,-8.53973293304,0.01,0.0,0.0,0.0,0.01,0.0,0.0,0.0,0.01
1584954937942693252,2308,1584954937942418116,imu_link,0.0301556922495,-0.229914739728,0.606364905834,0.760625779629,0.0,0.0,0.0,0.0,0.0,0.0,0.0,0.0,0.0,0.00799672119319,-0.00894405134022,-0.0072072185576,0.01,0.0,0.0,0.0,0.01,0.0,0.0,0.0,0.01,-3.7205016613,2.22179079056,-8.55171394348,0.01,0.0,0.0,0.0,0.01,0.0,0.0,0.0,0.01
1584954937968638761,2309,1584954937968396141,imu_link,0.0302900448442,-0.229897171259,0.606336593628,0.760648310184,0.0,0.0,0.0,0.0,0.0,0.0,0.0,0.0,0.0,0.00867284461856,-0.00498089939356,-0.00523086776957,0.01,0.0,0.0,0.0,0.01,0.0,0.0,0.0,0.01,-3.69430470467,2.23997831345,-8.5545129776,0.01,0.0,0.0,0.0,0.01,0.0,0.0,0.0,0.01
1584954937992628957,2310,1584954937992369596,imu_link,0.0304264184088,-0.229881614447,0.60630273819,0.760674536228,0.0,0.0,0.0,0.0,0.0,0.0,0.0,0.0,0.0,0.00770905800164,-0.0069686267525,-0.00455155689269,0.01,0.0,0.0,0.0,0.01,0.0,0.0,0.0,0.01,-3.70201468468,2.21600365639,-8.53272628784,0.01,0.0,0.0,0.0,0.01,0.0,0.0,0.0,0.01
1584954938017733474,2311,1584954938017385941,imu_link,0.0305238924921,-0.229877188802,0.606277167797,0.760692358017,0.0,0.0,0.0,0.0,0.0,0.0,0.0,0.0,0.0,0.00523533299565,-0.0026611534413,-0.00306003214791,0.01,0.0,0.0,0.0,0.01,0.0,0.0,0.0,0.01,-3.69190454483,2.2109413147,-8.55384349823,0.01,0.0,0.0,0.0,0.01,0.0,0.0,0.0,0.01
1584954938042833871,2312,1584954938042448654,imu_link,0.0305987913162,-0.229846358299,0.606256067753,0.760715484619,0.0,0.0,0.0,0.0,0.0,0.0,0.0,0.0,0.0,0.00588585343212,-0.00189603166655,-0.00372675387189,0.01,0.0,0.0,0.0,0.01,0.0,0.0,0.0,0.01,-3.70634841919,2.23170828819,-8.54892349243,0.01,0.0,0.0,0.0,0.01,0.0,0.0,0.0,0.01
1584954938068890160,2313,1584954938068432121,imu_link,0.0306642148644,-0.229831621051,0.606226623058,0.760740756989,0.0,0.0,0.0,0.0,0.0,0.0,0.0,0.0,0.0,0.00191610772163,-0.00361520121805,-0.00462854607031,0.01,0.0,0.0,0.0,0.01,0.0,0.0,0.0,0.01,-3.68981647491,2.18117809296,-8.53358459473,0.01,0.0,0.0,0.0,0.01,0.0,0.0,0.0,0.01
1584954938092726862,2314,1584954938092375775,imu_link,0.0307202525437,-0.229874759912,0.606199145317,0.760747373104,0.0,0.0,0.0,0.0,0.0,0.0,0.0,0.0,0.0,0.000957579351962,-0.00501403911039,-0.00192959606647,0.01,0.0,0.0,0.0,0.01,0.0,0.0,0.0,0.01,-3.71466612816,2.21952962875,-8.52407455444,0.01,0.0,0.0,0.0,0.01,0.0,0.0,0.0,0.01
1584954938118669543,2315,1584954938118352207,imu_link,0.0307535696775,-0.229899376631,0.606167912483,0.760763466358,0.0,0.0,0.0,0.0,0.0,0.0,0.0,0.0,0.0,0.000686208717525,-0.00420347973704,-0.0037019662559,0.01,0.0,0.0,0.0,0.01,0.0,0.0,0.0,0.01,-3.69698524475,2.20284748077,-8.4855222702,0.01,0.0,0.0,0.0,0.01,0.0,0.0,0.0,0.01
1584954938142647988,2316,1584954938142342207,imu_link,0.0308087281883,-0.229919672012,0.606138408184,0.760778546333,0.0,0.0,0.0,0.0,0.0,0.0,0.0,0.0,0.0,0.00247313082218,-0.00366233219393,-0.00325522338971,0.01,0.0,0.0,0.0,0.01,0.0,0.0,0.0,0.01,-3.69203662872,2.20375585556,-8.53263568878,0.01,0.0,0.0,0.0,0.01,0.0,0.0,0.0,0.01
1584954938168537422,2317,1584954938168254789,imu_link,0.0308535955846,-0.229927971959,0.606114625931,0.760793209076,0.0,0.0,0.0,0.0,0.0,0.0,0.0,0.0,0.0,0.00313071440905,-0.00377513840795,-0.00434954511002,0.01,0.0,0.0,0.0,0.01,0.0,0.0,0.0,0.01,-3.71306419373,2.23694610596,-8.5014591217,0.01,0.0,0.0,0.0,0.01,0.0,0.0,0.0,0.01
1584954938192422928,2318,1584954938192217815,imu_link,0.0308961234987,-0.229934558272,0.606088578701,0.760810256004,0.0,0.0,0.0,0.0,0.0,0.0,0.0,0.0,0.0,0.00302037689835,-0.0010431711562,-0.00357281370088,0.01,0.0,0.0,0.0,0.01,0.0,0.0,0.0,0.01,-3.71449375153,2.21774148941,-8.53441143036,0.01,0.0,0.0,0.0,0.01,0.0,0.0,0.0,0.01
1584954938218547668,2319,1584954938218224816,imu_link,0.0309139043093,-0.229925811291,0.606072902679,0.760824680328,0.0,0.0,0.0,0.0,0.0,0.0,0.0,0.0,0.0,0.00106824282557,-0.00193640415091,-0.00189527776092,0.01,0.0,0.0,0.0,0.01,0.0,0.0,0.0,0.01,-3.7160012722,2.20746183395,-8.53859710693,0.01,0.0,0.0,0.0,0.01,0.0,0.0,0.0,0.01
1584954938243454211,2320,1584954938243204052,imu_link,0.0309170428663,-0.22992387414,0.606075227261,0.760823309422,0.0,0.0,0.0,0.0,0.0,0.0,0.0,0.0,0.0,0.00231197010726,-0.000884335138835,-0.00175699125975,0.01,0.0,0.0,0.0,0.01,0.0,0.0,0.0,0.01,-3.70184326172,2.19687128067,-8.53919124603,0.01,0.0,0.0,0.0,0.01,0.0,0.0,0.0,0.01
1584954938268777876,2321,1584954938268333688,imu_link,0.0309597812593,-0.229892715812,0.60606855154,0.760836184025,0.0,0.0,0.0,0.0,0.0,0.0,0.0,0.0,0.0,0.0059799561277,-0.00195980630815,-0.00361125450581,0.01,0.0,0.0,0.0,0.01,0.0,0.0,0.0,0.01,-3.70207691193,2.25091791153,-8.54048252106,0.01,0.0,0.0,0.0,0.01,0.0,0.0,0.0,0.01
1584954938293418129,2322,1584954938293168474,imu_link,0.0310289878398,-0.229902729392,0.606040477753,0.760852754116,0.0,0.0,0.0,0.0,0.0,0.0,0.0,0.0,0.0,0.00156627688557,-0.00403696065769,-0.00256643537432,0.01,0.0,0.0,0.0,0.01,0.0,0.0,0.0,0.01,-3.73431777954,2.20575547218,-8.53387260437,0.01,0.0,0.0,0.0,0.01,0.0,0.0,0.0,0.01
1584954938318442216,2323,1584954938318150382,imu_link,0.0310752037913,-0.229906305671,0.606020331383,0.760865867138,0.0,0.0,0.0,0.0,0.0,0.0,0.0,0.0,0.0,0.00319199543446,-0.00272852019407,-0.00273316842504,0.01,0.0,0.0,0.0,0.01,0.0,0.0,0.0,0.01,-3.68527126312,2.20676445961,-8.50178909302,0.01,0.0,0.0,0.0,0.01,0.0,0.0,0.0,0.01
1584954938342454581,2324,1584954938342154642,imu_link,0.0311980303377,-0.229931235313,0.60594779253,0.760911107063,0.0,0.0,0.0,0.0,0.0,0.0,0.0,0.0,0.0,0.00541296694428,-0.0150238638744,-0.0134467333555,0.01,0.0,0.0,0.0,0.01,0.0,0.0,0.0,0.01,-3.57202267647,2.19456243515,-8.4326171875,0.01,0.0,0.0,0.0,0.01,0.0,0.0,0.0,0.01
1584954938368402864,2325,1584954938368113474,imu_link,0.0314210243523,-0.230058908463,0.605832993984,0.760954737663,0.0,0.0,0.0,0.0,0.0,0.0,0.0,0.0,0.0,0.00509510561824,-0.017465185374,-0.0107948258519,0.01,0.0,0.0,0.0,0.01,0.0,0.0,0.0,0.01,-3.7353322506,2.20270061493,-8.53043079376,0.01,0.0,0.0,0.0,0.01,0.0,0.0,0.0,0.01
1584954938392483585,2326,1584954938392096310,imu_link,0.0316057503223,-0.230142042041,0.605738043785,0.760997533798,0.0,0.0,0.0,0.0,0.0,0.0,0.0,0.0,0.0,0.00403731502593,-0.0112247336656,-0.0097686406225,0.01,0.0,0.0,0.0,0.01,0.0,0.0,0.0,0.01,-3.71398878098,2.22107076645,-8.49253940582,0.01,0.0,0.0,0.0,0.01,0.0,0.0,0.0,0.01
1584954938418497137,2327,1584954938418079086,imu_link,0.0317366532981,-0.230192929506,0.605654120445,0.761043488979,0.0,0.0,0.0,0.0,0.0,0.0,0.0,0.0,0.0,0.00367633998394,-0.00710374675691,-0.00746626453474,0.01,0.0,0.0,0.0,0.01,0.0,0.0,0.0,0.01,-3.73087263107,2.20152449608,-8.49773025513,0.01,0.0,0.0,0.0,0.01,0.0,0.0,0.0,0.01
1584954938442465484,2328,1584954938442153654,imu_link,0.0318052843213,-0.230254426599,0.605596005917,0.761068284512,0.0,0.0,0.0,0.0,0.0,0.0,0.0,0.0,0.0,-0.0018127290532,-0.00735819898546,-0.00546097289771,0.01,0.0,0.0,0.0,0.01,0.0,0.0,0.0,0.01,-3.73790931702,2.19187998772,-8.53359794617,0.01,0.0,0.0,0.0,0.01,0.0,0.0,0.0,0.01
1584954938468508130,2329,1584954938468137842,imu_link,0.0318480581045,-0.230369091034,0.605542302132,0.76107442379,0.0,0.0,0.0,0.0,0.0,0.0,0.0,0.0,0.0,-0.00437873415649,-0.0103314341977,-0.00283106928691,0.01,0.0,0.0,0.0,0.01,0.0,0.0,0.0,0.01,-3.72238516808,2.19622445107,-8.52001857758,0.01,0.0,0.0,0.0,0.01,0.0,0.0,0.0,0.01
1584954938492414494,2330,1584954938492099445,imu_link,0.031858522445,-0.230522245169,0.605520009995,0.761045455933,0.0,0.0,0.0,0.0,0.0,0.0,0.0,0.0,0.0,-0.00860070809722,-0.00439079804346,0.00296253757551,0.01,0.0,0.0,0.0,0.01,0.0,0.0,0.0,0.01,-3.80879926682,2.17930173874,-8.54604816437,0.01,0.0,0.0,0.0,0.01,0.0,0.0,0.0,0.01
1584954938518214270,2331,1584954938517988843,imu_link,0.0318124629557,-0.230568692088,0.605588138103,0.760979056358,0.0,0.0,0.0,0.0,0.0,0.0,0.0,0.0,0.0,0.000926556065679,-0.00620469544083,0.00856268499047,0.01,0.0,0.0,0.0,0.01,0.0,0.0,0.0,0.01,-3.6374027729,2.19951415062,-8.48847579956,0.01,0.0,0.0,0.0,0.01,0.0,0.0,0.0,0.01
1584954938543181980,2332,1584954938542954545,imu_link,0.0318618007004,-0.230646550655,0.605624556541,0.760924398899,0.0,0.0,0.0,0.0,0.0,0.0,0.0,0.0,0.0,-0.00166419427842,-0.00785954017192,0.00229419674724,0.01,0.0,0.0,0.0,0.01,0.0,0.0,0.0,0.01,-3.72699451447,2.1745865345,-8.51967811584,0.01,0.0,0.0,0.0,0.01,0.0,0.0,0.0,0.01
1584954938568079806,2333,1584954938567918652,imu_link,0.0319094993174,-0.230690509081,0.605656385422,0.760883748531,0.0,0.0,0.0,0.0,0.0,0.0,0.0,0.0,0.0,0.00289161596447,-0.00385365239345,0.00233375607058,0.01,0.0,0.0,0.0,0.01,0.0,0.0,0.0,0.01,-3.71800470352,2.24130725861,-8.4814825058,0.01,0.0,0.0,0.0,0.01,0.0,0.0,0.0,0.01
1584954938593333620,2334,1584954938593137311,imu_link,0.0320293791592,-0.230719253421,0.605639517307,0.760883390903,0.0,0.0,0.0,0.0,0.0,0.0,0.0,0.0,0.0,0.00721138622612,-0.00906196329743,-0.00624839728698,0.01,0.0,0.0,0.0,0.01,0.0,0.0,0.0,0.01,-3.75778341293,2.23916339874,-8.55665779114,0.01,0.0,0.0,0.0,0.01,0.0,0.0,0.0,0.01
1584954938618878996,2335,1584954938618310565,imu_link,0.0322043411434,-0.230744019151,0.605605006218,0.760896027088,0.0,0.0,0.0,0.0,0.0,0.0,0.0,0.0,0.0,0.00878895353526,-0.0107530672103,-0.0067545901984,0.01,0.0,0.0,0.0,0.01,0.0,0.0,0.0,0.01,-3.72276735306,2.20481777191,-8.54587078094,0.01,0.0,0.0,0.0,0.01,0.0,0.0,0.0,0.01
1584954938643733666,2336,1584954938643303639,imu_link,0.0323837287724,-0.230755403638,0.605584621429,0.760901153088,0.0,0.0,0.0,0.0,0.0,0.0,0.0,0.0,0.0,0.0109070315957,-0.0071687377058,-0.00310277519748,0.01,0.0,0.0,0.0,0.01,0.0,0.0,0.0,0.01,-3.77403116226,2.19157767296,-8.54617404938,0.01,0.0,0.0,0.0,0.01,0.0,0.0,0.0,0.01
1584954938668574897,2337,1584954938668147890,imu_link,0.0325798466802,-0.230716153979,0.605606734753,0.760887086391,0.0,0.0,0.0,0.0,0.0,0.0,0.0,0.0,0.0,0.0157240740955,-0.00870175845921,-0.00147648947313,0.01,0.0,0.0,0.0,0.01,0.0,0.0,0.0,0.01,-3.75883555412,2.20952320099,-8.51517772675,0.01,0.0,0.0,0.0,0.01,0.0,0.0,0.0,0.01
1584954938693709476,2338,1584954938693260545,imu_link,0.0328740663826,-0.230741471052,0.60563147068,0.76084703207,0.0,0.0,0.0,0.0,0.0,0.0,0.0,0.0,0.0,0.0177557095885,-0.024745086208,-0.00530784763396,0.01,0.0,0.0,0.0,0.01,0.0,0.0,0.0,0.01,-3.71860599518,2.26063013077,-8.54276371002,0.01,0.0,0.0,0.0,0.01,0.0,0.0,0.0,0.01
1584954938718226059,2339,1584954938717824167,imu_link,0.0333574935794,-0.230978131294,0.605545163155,0.760822951794,0.0,0.0,0.0,0.0,0.0,0.0,0.0,0.0,0.0,0.014917797409,-0.0462096482515,-0.01808504574,0.01,0.0,0.0,0.0,0.01,0.0,0.0,0.0,0.01,-3.7241897583,2.23231458664,-8.54881572723,0.01,0.0,0.0,0.0,0.01,0.0,0.0,0.0,0.01
1584954938743058660,2340,1584954938742823338,imu_link,0.0340081267059,-0.231424152851,0.60523879528,0.760902404785,0.0,0.0,0.0,0.0,0.0,0.0,0.0,0.0,0.0,0.00243734475225,-0.0646694600582,-0.0426920801401,0.01,0.0,0.0,0.0,0.01,0.0,0.0,0.0,0.01,-3.78482484818,2.21758508682,-8.61829185486,0.01,0.0,0.0,0.0,0.01,0.0,0.0,0.0,0.01
1584954938768077774,2341,1584954938767801701,imu_link,0.034532379359,-0.232100442052,0.604650259018,0.761140584946,0.0,0.0,0.0,0.0,0.0,0.0,0.0,0.0,0.0,-0.0284838825464,-0.0653509274125,-0.0681215673685,0.01,0.0,0.0,0.0,0.01,0.0,0.0,0.0,0.01,-3.95120048523,2.25403785706,-8.85988616943,0.01,0.0,0.0,0.0,0.01,0.0,0.0,0.0,0.01
1584954938792999431,2342,1584954938792776602,imu_link,0.0348132140934,-0.233072534204,0.603504598141,0.76173967123,0.0,0.0,0.0,0.0,0.0,0.0,0.0,0.0,0.0,-0.0819367095828,-0.0608416981995,-0.132558122277,0.01,0.0,0.0,0.0,0.01,0.0,0.0,0.0,0.01,-3.86564612389,2.03330206871,-9.04894447327,0.01,0.0,0.0,0.0,0.01,0.0,0.0,0.0,0.01
1584954938818025259,2343,1584954938817769824,imu_link,0.0345606990159,-0.235104322433,0.600906431675,0.763179540634,0.0,0.0,0.0,0.0,0.0,0.0,0.0,0.0,0.0,-0.22835804522,-0.146206513047,-0.301497101784,0.01,0.0,0.0,0.0,0.01,0.0,0.0,0.0,0.01,-3.41872549057,1.53364944458,-8.64228057861,0.01,0.0,0.0,0.0,0.01,0.0,0.0,0.0,0.01
1584954938843184942,2344,1584954938842822055,imu_link,0.035402096808,-0.239968061447,0.595580637455,0.765797436237,0.0,0.0,0.0,0.0,0.0,0.0,0.0,0.0,0.0,-0.223312020302,-0.460902899504,-0.556075274944,0.01,0.0,0.0,0.0,0.01,0.0,0.0,0.0,0.01,-3.61367487907,3.23260211945,-8.76105308533,0.01,0.0,0.0,0.0,0.01,0.0,0.0,0.0,0.01
1584954938868112834,2345,1584954938867818765,imu_link,0.041503932327,-0.244570031762,0.588878512383,0.769210636616,0.0,0.0,0.0,0.0,0.0,0.0,0.0,0.0,0.0,0.109447859228,-0.484422177076,-0.729514837265,0.01,0.0,0.0,0.0,0.01,0.0,0.0,0.0,0.01,-4.116314888,3.01978445053,-10.6303577423,0.01,0.0,0.0,0.0,0.01,0.0,0.0,0.0,0.01
1584954938893147424,2346,1584954938892792335,imu_link,0.0466779693961,-0.248239472508,0.582103848457,0.772886455059,0.0,0.0,0.0,0.0,0.0,0.0,0.0,0.0,0.0,-0.0614896714687,-0.406117290258,-0.645450472832,0.01,0.0,0.0,0.0,0.01,0.0,0.0,0.0,0.01,-2.59938335419,3.31185555458,-9.28488731384,0.01,0.0,0.0,0.0,0.01,0.0,0.0,0.0,0.01
1584954938918083536,2347,1584954938917747722,imu_link,0.0517399758101,-0.252882897854,0.575924634933,0.775682866573,0.0,0.0,0.0,0.0,0.0,0.0,0.0,0.0,0.0,-0.00690105650574,-0.538942039013,-0.538240909576,0.01,0.0,0.0,0.0,0.01,0.0,0.0,0.0,0.01,-1.46716880798,3.99252986908,-9.31271743774,0.01,0.0,0.0,0.0,0.01,0.0,0.0,0.0,0.01
1584954938943071303,2348,1584954938942716651,imu_link,0.0574640370905,-0.257955282927,0.572084248066,0.776451349258,0.0,0.0,0.0,0.0,0.0,0.0,0.0,0.0,0.0,0.0695141255856,-0.600982904434,-0.234246850014,0.01,0.0,0.0,0.0,0.01,0.0,0.0,0.0,0.01,0.10757958889,4.53333616257,-9.48487186432,0.01,0.0,0.0,0.0,0.01,0.0,0.0,0.0,0.01
1584954938968031513,2349,1584954938967715286,imu_link,0.061910983175,-0.263188034296,0.571837007999,0.774533092976,0.0,0.0,0.0,0.0,0.0,0.0,0.0,0.0,0.0,-0.005446289666,-0.509772360325,0.169543713331,0.01,0.0,0.0,0.0,0.01,0.0,0.0,0.0,0.01,0.97260248661,4.26318359375,-10.5269451141,0.01,0.0,0.0,0.0,0.01,0.0,0.0,0.0,0.01
1584954938992981199,2350,1584954938992675172,imu_link,0.0627079680562,-0.266945332289,0.575023293495,0.770815193653,0.0,0.0,0.0,0.0,0.0,0.0,0.0,0.0,0.0,-0.0253029316664,-0.19335347414,0.467784166336,0.01,0.0,0.0,0.0,0.01,0.0,0.0,0.0,0.01,1.12770700455,3.37253069878,-11.4485406876,0.01,0.0,0.0,0.0,0.01,0.0,0.0,0.0,0.01
1584954939017964728,2351,1584954939017668754,imu_link,0.0603931508958,-0.266893327236,0.580374956131,0.766997814178,0.0,0.0,0.0,0.0,0.0,0.0,0.0,0.0,0.0,-0.0054513560608,0.231613337994,0.604046404362,0.01,0.0,0.0,0.0,0.01,0.0,0.0,0.0,0.01,0.964989721775,2.75652599335,-11.9015474319,0.01,0.0,0.0,0.0,0.01,0.0,0.0,0.0,0.01
1584954939042968802,2352,1584954939042648029,imu_link,0.0547695569694,-0.262343645096,0.587109386921,0.763857841492,0.0,0.0,0.0,0.0,0.0,0.0,0.0,0.0,0.0,0.0430111326277,0.677172541618,0.686265826225,0.01,0.0,0.0,0.0,0.01,0.0,0.0,0.0,0.01,0.777286410332,2.75240182877,-11.7395057678,0.01,0.0,0.0,0.0,0.01,0.0,0.0,0.0,0.01
1584954939067935214,2353,1584954939067639021,imu_link,0.0458549931645,-0.253968089819,0.594699919224,0.761399805546,0.0,0.0,0.0,0.0,0.0,0.0,0.0,0.0,0.0,-0.0115096271038,1.06078052521,0.7582706213,0.01,0.0,0.0,0.0,0.01,0.0,0.0,0.0,0.01,0.381576478481,2.82744932175,-11.462890625,0.01,0.0,0.0,0.0,0.01,0.0,0.0,0.0,0.01
1584954939092909981,2354,1584954939092606014,imu_link,0.0327984206378,-0.242775827646,0.602671682835,0.759454488754,0.0,0.0,0.0,0.0,0.0,0.0,0.0,0.0,0.0,-0.153540119529,1.44638538361,0.834833681583,0.01,0.0,0.0,0.0,0.01,0.0,0.0,0.0,0.01,-0.636586129665,2.71953558922,-11.3318061829,0.01,0.0,0.0,0.0,0.01,0.0,0.0,0.0,0.01
1584954939117862665,2355,1584954939117558288,imu_link,0.0161559041589,-0.229335561395,0.610607504845,0.75782763958,0.0,0.0,0.0,0.0,0.0,0.0,0.0,0.0,0.0,-0.218786239624,1.69066381454,0.845996141434,0.01,0.0,0.0,0.0,0.01,0.0,0.0,0.0,0.01,-1.50829529762,2.44624042511,-10.6666765213,0.01,0.0,0.0,0.0,0.01,0.0,0.0,0.0,0.01
1584954939142912530,2356,1584954939142580387,imu_link,-0.00190528936218,-0.214380264282,0.617871701717,0.756486713886,0.0,0.0,0.0,0.0,0.0,0.0,0.0,0.0,0.0,-0.238699197769,1.8215045929,0.790424346924,0.01,0.0,0.0,0.0,0.01,0.0,0.0,0.0,0.01,-2.57775306702,2.10706949234,-10.3323698044,0.01,0.0,0.0,0.0,0.01,0.0,0.0,0.0,0.01
1584954939167842844,2357,1584954939167547397,imu_link,-0.0208427757025,-0.198820993304,0.623640060425,0.755717396736,0.0,0.0,0.0,0.0,0.0,0.0,0.0,0.0,0.0,-0.306648313999,1.87571692467,0.645886778831,0.01,0.0,0.0,0.0,0.01,0.0,0.0,0.0,0.01,-3.74852228165,1.4206674099,-9.49625778198,0.01,0.0,0.0,0.0,0.01,0.0,0.0,0.0,0.01
1584954939192837445,2358,1584954939192530880,imu_link,-0.0396540388465,-0.183817714453,0.626751124859,0.756188929081,0.0,0.0,0.0,0.0,0.0,0.0,0.0,0.0,0.0,-0.352471977472,1.82406270504,0.370626151562,0.01,0.0,0.0,0.0,0.01,0.0,0.0,0.0,0.01,-4.90203666687,1.14274227619,-8.8369550705,0.01,0.0,0.0,0.0,0.01,0.0,0.0,0.0,0.01
1584954939217814906,2359,1584954939217527695,imu_link,-0.0575833022594,-0.169841587543,0.626374661922,0.758612513542,0.0,0.0,0.0,0.0,0.0,0.0,0.0,0.0,0.0,-0.416177898645,1.74217033386,0.0212360229343,0.01,0.0,0.0,0.0,0.01,0.0,0.0,0.0,0.01,-5.34702634811,0.71585226059,-7.46419858932,0.01,0.0,0.0,0.0,0.01,0.0,0.0,0.0,0.01
1584954939242879414,2360,1584954939242485698,imu_link,-0.0746542513371,-0.158608675003,0.622083365917,0.763074338436,0.0,0.0,0.0,0.0,0.0,0.0,0.0,0.0,0.0,-0.579735934734,1.52689790726,-0.348352819681,0.01,0.0,0.0,0.0,0.01,0.0,0.0,0.0,0.01,-5.60354852676,0.433750241995,-6.07232570648,0.01,0.0,0.0,0.0,0.01,0.0,0.0,0.0,0.01
1584954939267833287,2361,1584954939267516777,imu_link,-0.0906747952104,-0.151218473911,0.613949000835,0.769400954247,0.0,0.0,0.0,0.0,0.0,0.0,0.0,0.0,0.0,-0.723356902599,1.27311956882,-0.697875916958,0.01,0.0,0.0,0.0,0.01,0.0,0.0,0.0,0.01,-6.1067533493,0.875473022461,-5.35016298294,0.01,0.0,0.0,0.0,0.01,0.0,0.0,0.0,0.01
1584954939292710483,2362,1584954939292486878,imu_link,-0.10504501313,-0.147416204214,0.602989971638,0.776940882206,0.0,0.0,0.0,0.0,0.0,0.0,0.0,0.0,0.0,-0.804197192192,0.995388746262,-0.915370225906,0.01,0.0,0.0,0.0,0.01,0.0,0.0,0.0,0.01,-6.00017976761,1.67291998863,-4.46405124664,0.01,0.0,0.0,0.0,0.01,0.0,0.0,0.0,0.01
1584954939317609302,2363,1584954939317427494,imu_link,-0.117242641747,-0.147192105651,0.59110635519,0.784335374832,0.0,0.0,0.0,0.0,0.0,0.0,0.0,0.0,0.0,-0.825603783131,0.647232592106,-0.956289470196,0.01,0.0,0.0,0.0,0.01,0.0,0.0,0.0,0.01,-6.06999492645,2.47407221794,-4.15379858017,0.01,0.0,0.0,0.0,0.01,0.0,0.0,0.0,0.01
1584954939342557385,2364,1584954939342382772,imu_link,-0.126413494349,-0.149436444044,0.580138862133,0.7906498909,0.0,0.0,0.0,0.0,0.0,0.0,0.0,0.0,0.0,-0.673780620098,0.358626455069,-0.834124565125,0.01,0.0,0.0,0.0,0.01,0.0,0.0,0.0,0.01,-6.56438493729,3.85910725594,-4.55104827881,0.01,0.0,0.0,0.0,0.01,0.0,0.0,0.0,0.01
1584954939367518695,2365,1584954939367342040,imu_link,-0.131393119693,-0.152769759297,0.572896242142,0.794472813606,0.0,0.0,0.0,0.0,0.0,0.0,0.0,0.0,0.0,-0.405277878046,-0.0299783051014,-0.425375550985,0.01,0.0,0.0,0.0,0.01,0.0,0.0,0.0,0.01,-6.68515539169,5.09670114517,-3.41076254845,0.01,0.0,0.0,0.0,0.01,0.0,0.0,0.0,0.01
1584954939392600635,2366,1584954939392316451,imu_link,-0.112284220755,-0.165368855,0.570464909077,0.796627402306,0.0,0.0,0.0,0.0,0.0,0.0,0.0,0.0,0.0,0.708467543125,-1.77244508266,-0.535367786884,0.01,0.0,0.0,0.0,0.01,0.0,0.0,0.0,0.01,-0.826775550842,-0.330397605896,-8.74365329742,0.01,0.0,0.0,0.0,0.01,0.0,0.0,0.0,0.01
1584954939418231520,2367,1584954939417650438,imu_link,-0.0929965898395,-0.17753316462,0.569596886635,0.797115504742,0.0,0.0,0.0,0.0,0.0,0.0,0.0,0.0,0.0,0.861086368561,-1.57235765457,-0.706995487213,0.01,0.0,0.0,0.0,0.01,0.0,0.0,0.0,0.01,-0.442713975906,1.42559587955,-13.7823553085,0.01,0.0,0.0,0.0,0.01,0.0,0.0,0.0,0.01
1584954939443276882,2368,1584954939442776048,imu_link,-0.0707775652409,-0.193268164992,0.564514160156,0.799350857735,0.0,0.0,0.0,0.0,0.0,0.0,0.0,0.0,0.0,0.508091926575,-1.99135577679,-0.695438563824,0.01,0.0,0.0,0.0,0.01,0.0,0.0,0.0,0.01,-7.68888282776,1.65802705288,-13.1489257812,0.01,0.0,0.0,0.0,0.01,0.0,0.0,0.0,0.01
1584954939468027915,2369,1584954939467536233,imu_link,-0.0567540228367,-0.201503962278,0.562693834305,0.799719154835,0.0,0.0,0.0,0.0,0.0,0.0,0.0,0.0,0.0,0.504257023335,-0.768199384212,-0.13563105464,0.01,0.0,0.0,0.0,0.01,0.0,0.0,0.0,0.01,-4.5422949791,4.27743959427,-10.2400856018,0.01,0.0,0.0,0.0,0.01,0.0,0.0,0.0,0.01
1584954939493224155,2370,1584954939492700420,imu_link,-0.0485561788082,-0.209209308028,0.56269800663,0.798276126385,0.0,0.0,0.0,0.0,0.0,0.0,0.0,0.0,0.0,-0.0608603134751,-0.986861884594,-0.15723733604,0.01,0.0,0.0,0.0,0.01,0.0,0.0,0.0,0.01,-2.11972808838,-0.143060609698,-8.69345664978,0.01,0.0,0.0,0.0,0.01,0.0,0.0,0.0,0.01
1584954939518036250,2371,1584954939517538340,imu_link,-0.0416029393673,-0.218373835087,0.561943054199,0.796744704247,0.0,0.0,0.0,0.0,0.0,0.0,0.0,0.0,0.0,0.263085663319,-0.833387851715,-0.106763668358,0.01,0.0,0.0,0.0,0.01,0.0,0.0,0.0,0.01,-4.66795110703,6.70536994934,-9.83973503113,0.01,0.0,0.0,0.0,0.01,0.0,0.0,0.0,0.01
1584954939543365782,2372,1584954939542777959,imu_link,-0.0311216842383,-0.222166240215,0.562385082245,0.795862138271,0.0,0.0,0.0,0.0,0.0,0.0,0.0,0.0,0.0,0.564613223076,-0.699644505978,-0.166038319468,0.01,0.0,0.0,0.0,0.01,0.0,0.0,0.0,0.01,-4.0015668869,2.28954076767,-10.0005235672,0.01,0.0,0.0,0.0,0.01,0.0,0.0,0.0,0.01
1584954939567426127,2373,1584954939567200803,imu_link,-0.0216743312776,-0.223658904433,0.562898874283,0.795394182205,0.0,0.0,0.0,0.0,0.0,0.0,0.0,0.0,0.0,0.528108537197,-0.359404206276,-0.0692821070552,0.01,0.0,0.0,0.0,0.01,0.0,0.0,0.0,0.01,-5.24708271027,2.69161057472,-10.5833330154,0.01,0.0,0.0,0.0,0.01,0.0,0.0,0.0,0.01
1584954939592742423,2374,1584954939592197254,imu_link,-0.0162756256759,-0.223191082478,0.563967168331,0.794897377491,0.0,0.0,0.0,0.0,0.0,0.0,0.0,0.0,0.0,0.318405479193,-0.19885879755,0.0180290453136,0.01,0.0,0.0,0.0,0.01,0.0,0.0,0.0,0.01,-3.28564691544,2.8869073391,-8.98056697845,0.01,0.0,0.0,0.0,0.01,0.0,0.0,0.0,0.01
1584954939617395078,2375,1584954939617138795,imu_link,-0.0124207567424,-0.222732529044,0.564881324768,0.794446408749,0.0,0.0,0.0,0.0,0.0,0.0,0.0,0.0,0.0,0.24035602808,-0.118072845042,0.00664219353348,0.01,0.0,0.0,0.0,0.01,0.0,0.0,0.0,0.01,-3.54393172264,2.31040287018,-8.99476623535,0.01,0.0,0.0,0.0,0.01,0.0,0.0,0.0,0.01
1584954939642359803,2376,1584954939642125231,imu_link,-0.0098875220865,-0.222056731582,0.565472483635,0.794250547886,0.0,0.0,0.0,0.0,0.0,0.0,0.0,0.0,0.0,0.182893633842,-0.0509544499218,-0.00632707681507,0.01,0.0,0.0,0.0,0.01,0.0,0.0,0.0,0.01,-3.52654457092,2.66693258286,-8.85861968994,0.01,0.0,0.0,0.0,0.01,0.0,0.0,0.0,0.01
1584954939667555780,2377,1584954939667157974,imu_link,-0.00798895768821,-0.22130009532,0.56578707695,0.794259130955,0.0,0.0,0.0,0.0,0.0,0.0,0.0,0.0,0.0,0.143997624516,-0.0428555831313,-0.014971524477,0.01,0.0,0.0,0.0,0.01,0.0,0.0,0.0,0.01,-3.18182516098,2.42281913757,-8.73077011108,0.01,0.0,0.0,0.0,0.01,0.0,0.0,0.0,0.01
1584954939692658553,2378,1584954939692193319,imu_link,-0.00609089015052,-0.220814719796,0.565930783749,0.79430860281,0.0,0.0,0.0,0.0,0.0,0.0,0.0,0.0,0.0,0.158915832639,-0.0617636889219,-0.0309198591858,0.01,0.0,0.0,0.0,0.01,0.0,0.0,0.0,0.01,-3.10142946243,2.57315921783,-8.55901908875,0.01,0.0,0.0,0.0,0.01,0.0,0.0,0.0,0.01
1584954939717311505,2379,1584954939717091532,imu_link,-0.00353548605926,-0.220198825002,0.565933048725,0.794493436813,0.0,0.0,0.0,0.0,0.0,0.0,0.0,0.0,0.0,0.215244114399,-0.0867301672697,-0.0704759061337,0.01,0.0,0.0,0.0,0.01,0.0,0.0,0.0,0.01,-3.0573554039,2.60465216637,-8.45718383789,0.01,0.0,0.0,0.0,0.01,0.0,0.0,0.0,0.01
1584954939742398825,2380,1584954939742116233,imu_link,-0.000355583120836,-0.219322383404,0.565634787083,0.794955849648,0.0,0.0,0.0,0.0,0.0,0.0,0.0,0.0,0.0,0.253951251507,-0.0703389719129,-0.109010480344,0.01,0.0,0.0,0.0,0.01,0.0,0.0,0.0,0.01,-3.13188457489,2.5819683075,-8.46415710449,0.01,0.0,0.0,0.0,0.01,0.0,0.0,0.0,0.01
1584954939767311371,2381,1584954939767043299,imu_link,0.00370138022117,-0.218269571662,0.564882695675,0.795771539211,0.0,0.0,0.0,0.0,0.0,0.0,0.0,0.0,0.0,0.304980367422,-0.100685849786,-0.18094779551,0.01,0.0,0.0,0.0,0.01,0.0,0.0,0.0,0.01,-3.16930031776,2.37465572357,-8.50225734711,0.01,0.0,0.0,0.0,0.01,0.0,0.0,0.0,0.01
1584954939792313316,2382,1584954939792068038,imu_link,0.00748839275911,-0.217313930392,0.563735067844,0.79681956768,0.0,0.0,0.0,0.0,0.0,0.0,0.0,0.0,0.0,0.253341704607,-0.0873801708221,-0.188662186265,0.01,0.0,0.0,0.0,0.01,0.0,0.0,0.0,0.01,-3.30534529686,2.31807136536,-8.60931015015,0.01,0.0,0.0,0.0,0.01,0.0,0.0,0.0,0.01
1584954939817348294,2383,1584954939817046619,imu_link,0.0112057859078,-0.216420128942,0.562427639961,0.797942340374,0.0,0.0,0.0,0.0,0.0,0.0,0.0,0.0,0.0,0.252620875835,-0.102925501764,-0.205199599266,0.01,0.0,0.0,0.0,0.01,0.0,0.0,0.0,0.01,-3.27632498741,2.17512631416,-8.64282131195,0.01,0.0,0.0,0.0,0.01,0.0,0.0,0.0,0.01
1584954939842286021,2384,1584954939841991757,imu_link,0.0154183646664,-0.216077789664,0.560798883438,0.799110352993,0.0,0.0,0.0,0.0,0.0,0.0,0.0,0.0,0.0,0.255532473326,-0.188458159566,-0.251620173454,0.01,0.0,0.0,0.0,0.01,0.0,0.0,0.0,0.01,-3.35692811012,2.08414697647,-8.70300674438,0.01,0.0,0.0,0.0,0.01,0.0,0.0,0.0,0.01
1584954939867370242,2385,1584954939867080808,imu_link,0.0202012527734,-0.216207459569,0.558767735958,0.800390481949,0.0,0.0,0.0,0.0,0.0,0.0,0.0,0.0,0.0,0.256165206432,-0.220637157559,-0.271210253239,0.01,0.0,0.0,0.0,0.01,0.0,0.0,0.0,0.01,-3.16023182869,1.83694791794,-8.39912223816,0.01,0.0,0.0,0.0,0.01,0.0,0.0,0.0,0.01
1584954939892274669,2386,1584954939892044479,imu_link,0.0255088303238,-0.217116951942,0.556418299675,0.801628530025,0.0,0.0,0.0,0.0,0.0,0.0,0.0,0.0,0.0,0.235988587141,-0.338799595833,-0.312470018864,0.01,0.0,0.0,0.0,0.01,0.0,0.0,0.0,0.01,-3.30459570885,1.56771183014,-8.68669319153,0.01,0.0,0.0,0.0,0.01,0.0,0.0,0.0,0.01
1584954939917340252,2387,1584954939917016643,imu_link,0.0313950031996,-0.219651579857,0.553464829922,0.802772879601,0.0,0.0,0.0,0.0,0.0,0.0,0.0,0.0,0.0,0.210026055574,-0.446464240551,-0.360209792852,0.01,0.0,0.0,0.0,0.01,0.0,0.0,0.0,0.01,-4.08802366257,2.021494627,-8.5222234726,0.01,0.0,0.0,0.0,0.01,0.0,0.0,0.0,0.01
1584954939942288356,2388,1584954939941999143,imu_link,0.0373102203012,-0.22275441885,0.549871444702,0.80413299799,0.0,0.0,0.0,0.0,0.0,0.0,0.0,0.0,0.0,0.142894774675,-0.530269086361,-0.41191726923,0.01,0.0,0.0,0.0,0.01,0.0,0.0,0.0,0.01,-3.06671595573,2.23979663849,-8.61234092712,0.01,0.0,0.0,0.0,0.01,0.0,0.0,0.0,0.01
1584954939967312474,2389,1584954939967011937,imu_link,0.0443774834275,-0.22919344902,0.545296430588,0.805079400539,0.0,0.0,0.0,0.0,0.0,0.0,0.0,0.0,0.0,0.0639841705561,-0.882597148418,-0.447538375854,0.01,0.0,0.0,0.0,0.01,0.0,0.0,0.0,0.01,-3.06402015686,1.38181173801,-8.11531543732,0.01,0.0,0.0,0.0,0.01,0.0,0.0,0.0,0.01
1584954939992257504,2390,1584954939991959618,imu_link,0.0564725585282,-0.241545572877,0.539758980274,0.804441928864,0.0,0.0,0.0,0.0,0.0,0.0,0.0,0.0,0.0,0.212387055159,-1.63030695915,-0.554729104042,0.01,0.0,0.0,0.0,0.01,0.0,0.0,0.0,0.01,-4.21964550018,1.51839900017,-8.72726917267,0.01,0.0,0.0,0.0,0.01,0.0,0.0,0.0,0.01
1584954940017212770,2391,1584954940016907599,imu_link,0.0739170089364,-0.259974449873,0.533049046993,0.801753342152,0.0,0.0,0.0,0.0,0.0,0.0,0.0,0.0,0.0,0.193016275764,-2.31628346443,-0.614855408669,0.01,0.0,0.0,0.0,0.01,0.0,0.0,0.0,0.01,-3.89379167557,1.84124350548,-8.92834091187,0.01,0.0,0.0,0.0,0.01,0.0,0.0,0.0,0.01
1584954940042776535,2392,1584954940042091021,imu_link,0.0969057232141,-0.287847071886,0.522690534592,0.796585202217,0.0,0.0,0.0,0.0,0.0,0.0,0.0,0.0,0.0,0.0345873311162,-3.44305634499,-0.855704665184,0.01,0.0,0.0,0.0,0.01,0.0,0.0,0.0,0.01,-4.12256717682,2.41124272346,-8.58793258667,0.01,0.0,0.0,0.0,0.01,0.0,0.0,0.0,0.01
1584954940067269803,2393,1584954940066952606,imu_link,0.13017514348,-0.330749839544,0.50787127018,0.784681975842,0.0,0.0,0.0,0.0,0.0,0.0,0.0,0.0,0.0,0.175398901105,-5.41347122192,-1.00289213657,0.01,0.0,0.0,0.0,0.01,0.0,0.0,0.0,0.01,-1.84855771065,1.99440455437,-11.0774822235,0.01,0.0,0.0,0.0,0.01,0.0,0.0,0.0,0.01
1584954940092174916,2394,1584954940091875267,imu_link,0.175054267049,-0.396803766489,0.481905281544,0.761360704899,0.0,0.0,0.0,0.0,0.0,0.0,0.0,0.0,0.0,-0.79274058342,-7.94074678421,-1.4311221838,0.01,0.0,0.0,0.0,0.01,0.0,0.0,0.0,0.01,-3.25068831444,1.00767147541,-16.2349281311,0.01,0.0,0.0,0.0,0.01,0.0,0.0,0.0,0.01
1584954940117192545,2395,1584954940116876320,imu_link,0.225974455476,-0.482722431421,0.441843599081,0.721587717533,0.0,0.0,0.0,0.0,0.0,0.0,0.0,0.0,0.0,-0.940785884857,-9.26148414612,-1.50609350204,0.01,0.0,0.0,0.0,0.01,0.0,0.0,0.0,0.01,-7.87907600403,8.1863899231,-23.1050491333,0.01,0.0,0.0,0.0,0.01,0.0,0.0,0.0,0.01
1584954940142186366,2396,1584954940141846291,imu_link,0.27971893549,-0.561999261379,0.390620321035,0.67329788208,0.0,0.0,0.0,0.0,0.0,0.0,0.0,0.0,0.0,0.435567945242,-8.73391056061,-2.44051241875,0.01,0.0,0.0,0.0,0.01,0.0,0.0,0.0,0.01,-18.8290519714,16.6231079102,-21.0211601257,0.01,0.0,0.0,0.0,0.01,0.0,0.0,0.0,0.01
1584954940166914843,2397,1584954940166724540,imu_link,0.348488599062,-0.593522429466,0.358157932758,0.630880117416,0.0,0.0,0.0,0.0,0.0,0.0,0.0,0.0,0.0,2.43006300926,-4.46965169907,-2.22293901443,0.01,0.0,0.0,0.0,0.01,0.0,0.0,0.0,0.01,-19.7542533875,13.7259235382,-41.0849189758,0.01,0.0,0.0,0.0,0.01,0.0,0.0,0.0,0.01
1584954940191922816,2398,1584954940191720574,imu_link,0.360011965036,-0.583266794682,0.367424666882,0.628641724586,0.0,0.0,0.0,0.0,0.0,0.0,0.0,0.0,0.0,0.565445303917,2.05999946594,0.566832065582,0.01,0.0,0.0,0.0,0.01,0.0,0.0,0.0,0.01,0.818987667561,8.50169754028,-17.3313007355,0.01,0.0,0.0,0.0,0.01,0.0,0.0,0.0,0.01
1584954940216884444,2399,1584954940216694780,imu_link,0.351861923933,-0.568056881428,0.388225853443,0.634653627872,0.0,0.0,0.0,0.0,0.0,0.0,0.0,0.0,0.0,1.07510471344,1.66425037384,0.772699058056,0.01,0.0,0.0,0.0,0.01,0.0,0.0,0.0,0.01,6.4226808548,4.75004720688,-2.137362957,0.01,0.0,0.0,0.0,0.01,0.0,0.0,0.0,0.01
1584954940242056614,2400,1584954940241839865,imu_link,0.342465847731,-0.555405676365,0.40862801671,0.638173103333,0.0,0.0,0.0,0.0,0.0,0.0,0.0,0.0,0.0,0.381732970476,1.9634257555,1.18092238903,0.01,0.0,0.0,0.0,0.01,0.0,0.0,0.0,0.01,0.94777661562,3.89386510849,-8.60792732239,0.01,0.0,0.0,0.0,0.01,0.0,0.0,0.0,0.01
1584954940266910832,2401,1584954940266748002,imu_link,0.319247573614,-0.538265585899,0.433543503284,0.648375868797,0.0,0.0,0.0,0.0,0.0,0.0,0.0,0.0,0.0,0.275585889816,3.32122540474,1.70526194572,0.01,0.0,0.0,0.0,0.01,0.0,0.0,0.0,0.01,-2.01661133766,5.93511581421,-11.9508066177,0.01,0.0,0.0,0.0,0.01,0.0,0.0,0.0,0.01
1584954940292165079,2402,1584954940291921534,imu_link,0.286974340677,-0.510654866695,0.467572927475,0.662006855011,0.0,0.0,0.0,0.0,0.0,0.0,0.0,0.0,0.0,0.390938907862,4.40262460709,2.14953994751,0.01,0.0,0.0,0.0,0.01,0.0,0.0,0.0,0.01,-3.94015955925,3.05680656433,-9.35924053192,0.01,0.0,0.0,0.0,0.01,0.0,0.0,0.0,0.01
1584954940317425577,2403,1584954940316948990,imu_link,0.245797172189,-0.476785778999,0.503823339939,0.677067995071,0.0,0.0,0.0,0.0,0.0,0.0,0.0,0.0,0.0,0.138521254063,4.98342704773,2.27946066856,0.01,0.0,0.0,0.0,0.01,0.0,0.0,0.0,0.01,-5.43761730194,0.728122234344,-8.12571144104,0.01,0.0,0.0,0.0,0.01,0.0,0.0,0.0,0.01
1584954940342452577,2404,1584954940341961467,imu_link,0.200495675206,-0.437157839537,0.537332236767,0.692797660828,0.0,0.0,0.0,0.0,0.0,0.0,0.0,0.0,0.0,0.107700131834,5.39963912964,1.97840285301,0.01,0.0,0.0,0.0,0.01,0.0,0.0,0.0,0.01,-7.8026509285,-0.876695632935,-10.0329341888,0.01,0.0,0.0,0.0,0.01,0.0,0.0,0.0,0.01
1584954940368452589,2405,1584954940367225684,imu_link,0.152860715985,-0.391197174788,0.56452447176,0.710570633411,0.0,0.0,0.0,0.0,0.0,0.0,0.0,0.0,0.0,-0.0659322813153,5.8387799263,1.45944142342,0.01,0.0,0.0,0.0,0.01,0.0,0.0,0.0,0.01,-9.42950057983,-1.20409440994,-10.7025613785,0.01,0.0,0.0,0.0,0.01,0.0,0.0,0.0,0.01
1584954940392722438,2406,1584954940392081500,imu_link,0.103080280125,-0.34052297473,0.584205806255,0.72946703434,0.0,0.0,0.0,0.0,0.0,0.0,0.0,0.0,0.0,-0.155306845903,6.09941244125,1.07518148422,0.01,0.0,0.0,0.0,0.01,0.0,0.0,0.0,0.01,-10.8843994141,1.42746424675,-13.037610054,0.01,0.0,0.0,0.0,0.01,0.0,0.0,0.0,0.01
1584954940416874953,2407,1584954940416561909,imu_link,0.0502930879593,-0.285466223955,0.599576234818,0.745981216431,0.0,0.0,0.0,0.0,0.0,0.0,0.0,0.0,0.0,-0.292527765036,6.24091434479,1.1964161396,0.01,0.0,0.0,0.0,0.01,0.0,0.0,0.0,0.01,-12.6992330551,3.97040820122,-13.6400432587,0.01,0.0,0.0,0.0,0.01,0.0,0.0,0.0,0.01
1584954940441820925,2408,1584954940441557115,imu_link,-0.00514684664086,-0.231262862682,0.613485634327,0.755067169666,0.0,0.0,0.0,0.0,0.0,0.0,0.0,0.0,0.0,-0.503056168556,6.20362567902,1.62153172493,0.01,0.0,0.0,0.0,0.01,0.0,0.0,0.0,0.01,-19.6350021362,4.64712142944,-16.9768772125,0.01,0.0,0.0,0.0,0.01,0.0,0.0,0.0,0.01
1584954940466678702,2409,1584954940466521351,imu_link,-0.0625358000398,-0.174644455314,0.624753713608,0.758466482162,0.0,0.0,0.0,0.0,0.0,0.0,0.0,0.0,0.0,-0.433951228857,6.27351951599,1.42342996597,0.01,0.0,0.0,0.0,0.01,0.0,0.0,0.0,0.01,-28.857755661,2.23414945602,-14.6705713272,0.01,0.0,0.0,0.0,0.01,0.0,0.0,0.0,0.01
1584954940491792507,2410,1584954940491513193,imu_link,-0.113575637341,-0.120997972786,0.625231325626,0.762591540813,0.0,0.0,0.0,0.0,0.0,0.0,0.0,0.0,0.0,-0.444443434477,5.45894861221,0.318018436432,0.01,0.0,0.0,0.0,0.01,0.0,0.0,0.0,0.01,-32.1719665527,-2.48261475563,-2.95623111725,0.01,0.0,0.0,0.0,0.01,0.0,0.0,0.0,0.01
1584954940516827805,2411,1584954940516523508,imu_link,-0.152219206095,-0.0856058076024,0.610787689686,0.772294819355,0.0,0.0,0.0,0.0,0.0,0.0,0.0,0.0,0.0,-0.923544108868,3.42650818825,-1.31139552593,0.01,0.0,0.0,0.0,0.01,0.0,0.0,0.0,0.01,-37.3367996216,-3.90476989746,16.3770103455,0.01,0.0,0.0,0.0,0.01,0.0,0.0,0.0,0.01
1584954940541913550,2412,1584954940541566928,imu_link,-0.167614489794,-0.0869156867266,0.593869507313,0.782093465328,0.0,0.0,0.0,0.0,0.0,0.0,0.0,0.0,0.0,0.500183165073,-1.87776207924,-1.59768819809,0.01,0.0,0.0,0.0,0.01,0.0,0.0,0.0,0.01,-30.7164077759,5.3163485527,37.6324768066,0.01,0.0,0.0,0.0,0.01,0.0,0.0,0.0,0.01
1584954940566859351,2413,1584954940566548850,imu_link,-0.124353468418,-0.117137640715,0.584052085876,0.793535232544,0.0,0.0,0.0,0.0,0.0,0.0,0.0,0.0,0.0,0.617250204086,-3.29628229141,-1.02952718735,0.01,0.0,0.0,0.0,0.01,0.0,0.0,0.0,0.01,-4.14378499985,15.5977993011,-41.0592765808,0.01,0.0,0.0,0.0,0.01,0.0,0.0,0.0,0.01
1584954940591763671,2414,1584954940591517840,imu_link,-0.0963022112846,-0.150926172733,0.575724601746,0.797802209854,0.0,0.0,0.0,0.0,0.0,0.0,0.0,0.0,0.0,-0.310536473989,-4.55462503433,-0.868433654308,0.01,0.0,0.0,0.0,0.01,0.0,0.0,0.0,0.01,-7.87267017365,-5.54186820984,2.12312746048,0.01,0.0,0.0,0.0,0.01,0.0,0.0,0.0,0.01
1584954940616778856,2415,1584954940616488193,imu_link,-0.0776289775968,-0.185948267579,0.572825431824,0.794523835182,0.0,0.0,0.0,0.0,0.0,0.0,0.0,0.0,0.0,-0.420419961214,-2.22992420197,-0.376442998648,0.01,0.0,0.0,0.0,0.01,0.0,0.0,0.0,0.01,-9.84037017822,-0.88919121027,-15.3684577942,0.01,0.0,0.0,0.0,0.01,0.0,0.0,0.0,0.01
1584954940641746826,2416,1584954940641460481,imu_link,-0.0660629943013,-0.207429438829,0.573091387749,0.79004752636,0.0,0.0,0.0,0.0,0.0,0.0,0.0,0.0,0.0,-0.017310269177,-1.64929771423,-0.0119787603617,0.01,0.0,0.0,0.0,0.01,0.0,0.0,0.0,0.01,-7.06089401245,8.13030052185,-12.4468822479,0.01,0.0,0.0,0.0,0.01,0.0,0.0,0.0,0.01
1584954940666773223,2417,1584954940666449311,imu_link,-0.0525019317865,-0.218375504017,0.574126422405,0.787359297276,0.0,0.0,0.0,0.0,0.0,0.0,0.0,0.0,0.0,0.525269329548,-1.20411372185,-0.110655546188,0.01,0.0,0.0,0.0,0.01,0.0,0.0,0.0,0.01,-4.31191492081,5.14254713058,-10.6451940536,0.01,0.0,0.0,0.0,0.01,0.0,0.0,0.0,0.01
1584954940691649279,2418,1584954940691421513,imu_link,-0.0377058424056,-0.222985446453,0.574942827225,0.786318361759,0.0,0.0,0.0,0.0,0.0,0.0,0.0,0.0,0.0,0.768439531326,-0.91532176733,-0.198318600655,0.01,0.0,0.0,0.0,0.01,0.0,0.0,0.0,0.01,-3.84832668304,2.14379358292,-10.3128900528,0.01,0.0,0.0,0.0,0.01,0.0,0.0,0.0,0.01
1584954940716709086,2419,1584954940716417214,imu_link,-0.0246561188251,-0.224986031651,0.575659632683,0.785741329193,0.0,0.0,0.0,0.0,0.0,0.0,0.0,0.0,0.0,0.674528121948,-0.684863567352,-0.137239232659,0.01,0.0,0.0,0.0,0.01,0.0,0.0,0.0,0.01,-3.35676383972,1.80800950527,-9.49051380157,0.01,0.0,0.0,0.0,0.01,0.0,0.0,0.0,0.01
1584954940741615473,2420,1584954940741389382,imu_link,-0.0148554369807,-0.226034909487,0.57627004385,0.785239100456,0.0,0.0,0.0,0.0,0.0,0.0,0.0,0.0,0.0,0.50499111414,-0.413170427084,-0.114913076162,0.01,0.0,0.0,0.0,0.01,0.0,0.0,0.0,0.01,-3.83415722847,2.07117986679,-9.36895942688,0.01,0.0,0.0,0.0,0.01,0.0,0.0,0.0,0.01
1584954940766671331,2421,1584954940766390969,imu_link,-0.00720652984455,-0.226065129042,0.576190471649,0.7853962183,0.0,0.0,0.0,0.0,0.0,0.0,0.0,0.0,0.0,0.47978785634,-0.333507597446,-0.197177603841,0.01,0.0,0.0,0.0,0.01,0.0,0.0,0.0,0.01,-3.45692610741,3.23700475693,-8.78376102448,0.01,0.0,0.0,0.0,0.01,0.0,0.0,0.0,0.01
1584954940791636572,2422,1584954940791363626,imu_link,-0.000560052343644,-0.225670874119,0.57521635294,0.786256015301,0.0,0.0,0.0,0.0,0.0,0.0,0.0,0.0,0.0,0.386335968971,-0.239140108228,-0.232001841068,0.01,0.0,0.0,0.0,0.01,0.0,0.0,0.0,0.01,-3.50017237663,2.98093175888,-8.96687984467,0.01,0.0,0.0,0.0,0.01,0.0,0.0,0.0,0.01
1584954940816627673,2423,1584954940816353055,imu_link,0.00519230542704,-0.225723728538,0.573668539524,0.787353873253,0.0,0.0,0.0,0.0,0.0,0.0,0.0,0.0,0.0,0.30252918601,-0.253795892,-0.241772934794,0.01,0.0,0.0,0.0,0.01,0.0,0.0,0.0,0.01,-3.52911043167,2.30678224564,-8.79503822327,0.01,0.0,0.0,0.0,0.01,0.0,0.0,0.0,0.01
1584954940841623236,2424,1584954940841346039,imu_link,0.0102841379121,-0.226316586137,0.572103857994,0.788271725178,0.0,0.0,0.0,0.0,0.0,0.0,0.0,0.0,0.0,0.222574830055,-0.212563171983,-0.221558466554,0.01,0.0,0.0,0.0,0.01,0.0,0.0,0.0,0.01,-3.56807661057,2.13405036926,-8.68377876282,0.01,0.0,0.0,0.0,0.01,0.0,0.0,0.0,0.01
1584954940866662246,2425,1584954940866366326,imu_link,0.0142726171762,-0.227109655738,0.570473492146,0.789162576199,0.0,0.0,0.0,0.0,0.0,0.0,0.0,0.0,0.0,0.162894934416,-0.219419896603,-0.211675420403,0.01,0.0,0.0,0.0,0.01,0.0,0.0,0.0,0.01,-3.48087716103,2.14225625992,-8.64593505859,0.01,0.0,0.0,0.0,0.01,0.0,0.0,0.0,0.01
1584954940891635218,2426,1584954940891318222,imu_link,0.0182038638741,-0.228325903416,0.568685948849,0.790020465851,0.0,0.0,0.0,0.0,0.0,0.0,0.0,0.0,0.0,0.160697460175,-0.266926258802,-0.23373247683,0.01,0.0,0.0,0.0,0.01,0.0,0.0,0.0,0.01,-3.32430553436,2.29550647736,-8.43952560425,0.01,0.0,0.0,0.0,0.01,0.0,0.0,0.0,0.01
1584954940916595057,2427,1584954940916321858,imu_link,0.0223228596151,-0.23006555438,0.566363275051,0.791077911854,0.0,0.0,0.0,0.0,0.0,0.0,0.0,0.0,0.0,0.124261938035,-0.287603080273,-0.295284926891,0.01,0.0,0.0,0.0,0.01,0.0,0.0,0.0,0.01,-3.53677773476,2.18797826767,-8.56403255463,0.01,0.0,0.0,0.0,0.01,0.0,0.0,0.0,0.01
1584954940941658838,2428,1584954940941335423,imu_link,0.0268353391439,-0.232583671808,0.56338518858,0.79232686758,0.0,0.0,0.0,0.0,0.0,0.0,0.0,0.0,0.0,0.115800797939,-0.388000845909,-0.336166292429,0.01,0.0,0.0,0.0,0.01,0.0,0.0,0.0,0.01,-3.6202352047,2.0266418457,-8.38832855225,0.01,0.0,0.0,0.0,0.01,0.0,0.0,0.0,0.01
1584954940966709171,2429,1584954940966337010,imu_link,0.0314959362149,-0.235843345523,0.560305774212,0.793374598026,0.0,0.0,0.0,0.0,0.0,0.0,0.0,0.0,0.0,0.0825256407261,-0.422286510468,-0.325401067734,0.01,0.0,0.0,0.0,0.01,0.0,0.0,0.0,0.01,-3.72213625908,1.8456915617,-8.60407829285,0.01,0.0,0.0,0.0,0.01,0.0,0.0,0.0,0.01
1584954940991636786,2430,1584954940991297523,imu_link,0.0361229479313,-0.23995423317,0.557338356972,0.794034600258,0.0,0.0,0.0,0.0,0.0,0.0,0.0,0.0,0.0,0.0574478916824,-0.522138118744,-0.271953731775,0.01,0.0,0.0,0.0,0.01,0.0,0.0,0.0,0.01,-4.07981777191,1.71889066696,-8.42226600647,0.01,0.0,0.0,0.0,0.01,0.0,0.0,0.0,0.01
1584954941016358517,2431,1584954941016137954,imu_link,0.0419481135905,-0.245648175478,0.554780125618,0.793798744678,0.0,0.0,0.0,0.0,0.0,0.0,0.0,0.0,0.0,0.0784076824784,-0.737174808979,-0.2374368608,0.01,0.0,0.0,0.0,0.01,0.0,0.0,0.0,0.01,-3.90564608574,1.77911019325,-8.45208835602,0.01,0.0,0.0,0.0,0.01,0.0,0.0,0.0,0.01
1584954941041321449,2432,1584954941041110650,imu_link,0.0510597117245,-0.254808932543,0.551557481289,0.792622089386,0.0,0.0,0.0,0.0,0.0,0.0,0.0,0.0,0.0,0.102869994938,-1.20641791821,-0.306661456823,0.01,0.0,0.0,0.0,0.01,0.0,0.0,0.0,0.01,-3.8757686615,1.95152318478,-8.25881671906,0.01,0.0,0.0,0.0,0.01,0.0,0.0,0.0,0.01
1584954941066356606,2433,1584954941066121934,imu_link,0.0657619014382,-0.268963873386,0.546702384949,0.790221691132,0.0,0.0,0.0,0.0,0.0,0.0,0.0,0.0,0.0,0.27324461937,-1.86464202404,-0.471168220043,0.01,0.0,0.0,0.0,0.01,0.0,0.0,0.0,0.01,-4.07627010345,1.63168072701,-8.76316642761,0.01,0.0,0.0,0.0,0.01,0.0,0.0,0.0,0.01
1584954941091435249,2434,1584954941091176441,imu_link,0.0855867043138,-0.288407027721,0.54004240036,0.786034762859,0.0,0.0,0.0,0.0,0.0,0.0,0.0,0.0,0.0,0.259805798531,-2.46480321884,-0.569210588932,0.01,0.0,0.0,0.0,0.01,0.0,0.0,0.0,0.01,-4.59649467468,1.90315496922,-8.92473125458,0.01,0.0,0.0,0.0,0.01,0.0,0.0,0.0,0.01
1584954941117112035,2435,1584954941116422627,imu_link,0.109081164002,-0.31698602438,0.529987692833,0.778931498528,0.0,0.0,0.0,0.0,0.0,0.0,0.0,0.0,0.0,-0.0362539216876,-3.67240285873,-0.788831949234,0.01,0.0,0.0,0.0,0.01,0.0,0.0,0.0,0.01,-4.76021575928,2.53952908516,-8.50786209106,0.01,0.0,0.0,0.0,0.01,0.0,0.0,0.0,0.01
1584954941141659907,2436,1584954941141257106,imu_link,0.145206212997,-0.365103423595,0.512463212013,0.76354187727,0.0,0.0,0.0,0.0,0.0,0.0,0.0,0.0,0.0,-0.0640392675996,-6.19068384171,-0.969195365906,0.01,0.0,0.0,0.0,0.01,0.0,0.0,0.0,0.01,-3.38609409332,1.11955416203,-9.3597946167,0.01,0.0,0.0,0.0,0.01,0.0,0.0,0.0,0.01
1584954941166905524,2437,1584954941166447476,imu_link,0.189651399851,-0.442455083132,0.480889827013,0.73281031847,0.0,0.0,0.0,0.0,0.0,0.0,0.0,0.0,0.0,-1.8005797863,-9.14446926117,-0.907687306404,0.01,0.0,0.0,0.0,0.01,0.0,0.0,0.0,0.01,-8.50841903687,0.0444751679897,-19.5893974304,0.01,0.0,0.0,0.0,0.01,0.0,0.0,0.0,0.01
1584954941191680886,2438,1584954941191241119,imu_link,0.233580976725,-0.538424551487,0.437336951494,0.681377530098,0.0,0.0,0.0,0.0,0.0,0.0,0.0,0.0,0.0,-2.07976555824,-9.86313533783,-1.02796339989,0.01,0.0,0.0,0.0,0.01,0.0,0.0,0.0,0.01,-10.6515169144,6.97876930237,-24.6053199768,0.01,0.0,0.0,0.0,0.01,0.0,0.0,0.0,0.01
1584954941217087342,2439,1584954941216343511,imu_link,0.277231961489,-0.618267774582,0.38571819663,0.626186072826,0.0,0.0,0.0,0.0,0.0,0.0,0.0,0.0,0.0,-1.00176668167,-7.83465480804,-1.6759531498,0.01,0.0,0.0,0.0,0.01,0.0,0.0,0.0,0.01,-7.29437208176,8.1933555603,-32.909866333,0.01,0.0,0.0,0.0,0.01,0.0,0.0,0.0,0.01
1584954941241581177,2440,1584954941241208903,imu_link,0.32039731741,-0.63908290863,0.35870334506,0.600208759308,0.0,0.0,0.0,0.0,0.0,0.0,0.0,0.0,0.0,1.18980491161,-0.560582101345,-1.40978288651,0.01,0.0,0.0,0.0,0.01,0.0,0.0,0.0,0.01,-17.405626297,13.0597763062,-40.1476554871,0.01,0.0,0.0,0.0,0.01,0.0,0.0,0.0,0.01
1584954941266205194,2441,1584954941265998666,imu_link,0.320143342018,-0.617784202099,0.367322593927,0.617191314697,0.0,0.0,0.0,0.0,0.0,0.0,0.0,0.0,0.0,0.687426686287,2.37329816818,-0.21589282155,0.01,0.0,0.0,0.0,0.01,0.0,0.0,0.0,0.01,7.04399013519,8.70538711548,-7.02288150787,0.01,0.0,0.0,0.0,0.01,0.0,0.0,0.0,0.01
1584954941291280076,2442,1584954941290999677,imu_link,0.322885930538,-0.594033539295,0.384341537952,0.628610014915,0.0,0.0,0.0,0.0,0.0,0.0,0.0,0.0,0.0,1.45072948933,1.85290384293,-0.0120114851743,0.01,0.0,0.0,0.0,0.01,0.0,0.0,0.0,0.01,5.04584980011,4.98127651215,-3.48152565956,0.01,0.0,0.0,0.0,0.01,0.0,0.0,0.0,0.01
1584954941316144884,2443,1584954941315963154,imu_link,0.314976483583,-0.572785556316,0.405327707529,0.639074325562,0.0,0.0,0.0,0.0,0.0,0.0,0.0,0.0,0.0,0.695413410664,2.83518862724,0.96741938591,0.01,0.0,0.0,0.0,0.01,0.0,0.0,0.0,0.01,0.0139418318868,6.09264230728,-9.90767288208,0.01,0.0,0.0,0.0,0.01,0.0,0.0,0.0,0.01
1584954941341197201,2444,1584954941340953556,imu_link,0.291581571102,-0.545324325562,0.435584157705,0.654116272926,0.0,0.0,0.0,0.0,0.0,0.0,0.0,0.0,0.0,0.760712683201,4.05816030502,1.70241034031,0.01,0.0,0.0,0.0,0.01,0.0,0.0,0.0,0.01,-2.4319396019,4.88664054871,-9.72564506531,0.01,0.0,0.0,0.0,0.01,0.0,0.0,0.0,0.01
1584954941366329281,2445,1584954941366021140,imu_link,0.257731020451,-0.510679483414,0.47049126029,0.671877324581,0.0,0.0,0.0,0.0,0.0,0.0,0.0,0.0,0.0,0.307003229856,4.90908145905,1.96479129791,0.01,0.0,0.0,0.0,0.01,0.0,0.0,0.0,0.01,-4.87922859192,0.409750729799,-8.19684410095,0.01,0.0,0.0,0.0,0.01,0.0,0.0,0.0,0.01
1584954941391361444,2446,1584954941391006794,imu_link,0.214590340853,-0.470475047827,0.503073513508,0.692474722862,0.0,0.0,0.0,0.0,0.0,0.0,0.0,0.0,0.0,0.0666121244431,5.56843185425,1.7833687067,0.01,0.0,0.0,0.0,0.01,0.0,0.0,0.0,0.01,-7.34507608414,-1.51616418362,-9.98286056519,0.01,0.0,0.0,0.0,0.01,0.0,0.0,0.0,0.01
1584954941416345742,2447,1584954941416002512,imu_link,0.167687237263,-0.422051608562,0.529293000698,0.716660618782,0.0,0.0,0.0,0.0,0.0,0.0,0.0,0.0,0.0,-0.208619967103,6.09385442734,1.12300443649,0.01,0.0,0.0,0.0,0.01,0.0,0.0,0.0,0.01,-9.43629074097,-4.17535400391,-11.4369602203,0.01,0.0,0.0,0.0,0.01,0.0,0.0,0.0,0.01
1584954941441291253,2448,1584954941440966755,imu_link,0.118432670832,-0.367850780487,0.544799506664,0.744212985039,0.0,0.0,0.0,0.0,0.0,0.0,0.0,0.0,0.0,-0.419408470392,6.45428276062,0.359397470951,0.01,0.0,0.0,0.0,0.01,0.0,0.0,0.0,0.01,-10.2486619949,-3.55775642395,-11.4753961563,0.01,0.0,0.0,0.0,0.01,0.0,0.0,0.0,0.01
1584954941466253459,2449,1584954941465950482,imu_link,0.0687961727381,-0.30822968483,0.551939308643,0.771767199039,0.0,0.0,0.0,0.0,0.0,0.0,0.0,0.0,0.0,-0.389315187931,6.70605754852,0.0665172562003,0.01,0.0,0.0,0.0,0.01,0.0,0.0,0.0,0.01,-11.6345281601,0.512216985226,-14.3692464828,0.01,0.0,0.0,0.0,0.01,0.0,0.0,0.0,0.01
1584954941491225839,2450,1584954941490927784,imu_link,0.01780279167,-0.245500937104,0.556613028049,0.793469727039,0.0,0.0,0.0,0.0,0.0,0.0,0.0,0.0,0.0,-0.411615490913,6.51903009415,0.391577541828,0.01,0.0,0.0,0.0,0.01,0.0,0.0,0.0,0.01,-13.1957712173,2.7409491539,-13.7745666504,0.01,0.0,0.0,0.0,0.01,0.0,0.0,0.0,0.01
1584954941516198938,2451,1584954941515896683,imu_link,-0.0344677977264,-0.185316845775,0.561521887779,0.805706441402,0.0,0.0,0.0,0.0,0.0,0.0,0.0,0.0,0.0,-0.606949150562,6.51998186111,0.953303575516,0.01,0.0,0.0,0.0,0.01,0.0,0.0,0.0,0.01,-23.980052948,4.84043979645,-21.2401180267,0.01,0.0,0.0,0.0,0.01,0.0,0.0,0.0,0.01
1584954941541152038,2452,1584954941540896106,imu_link,-0.0870303884149,-0.12131191045,0.566541671753,0.810394763947,0.0,0.0,0.0,0.0,0.0,0.0,0.0,0.0,0.0,-0.305578261614,6.32326698303,1.09877204895,0.01,0.0,0.0,0.0,0.01,0.0,0.0,0.0,0.01,-29.3065834045,4.56053638458,-10.1863241196,0.01,0.0,0.0,0.0,0.01,0.0,0.0,0.0,0.01
1584954941566185641,2453,1584954941565873848,imu_link,-0.127788886428,-0.0694242119789,0.56836348772,0.809823036194,0.0,0.0,0.0,0.0,0.0,0.0,0.0,0.0,0.0,-0.310045391321,4.32661819458,0.681743264198,0.01,0.0,0.0,0.0,0.01,0.0,0.0,0.0,0.01,-31.4604377747,1.48936378956,6.1340637207,0.01,0.0,0.0,0.0,0.01,0.0,0.0,0.0,0.01
1584954941591143635,2454,1584954941590868391,imu_link,-0.158751010895,-0.0452964156866,0.563894033432,0.80917853117,0.0,0.0,0.0,0.0,0.0,0.0,0.0,0.0,0.0,-1.48958539963,2.05061507225,-0.117303900421,0.01,0.0,0.0,0.0,0.01,0.0,0.0,0.0,0.01,-37.9939346313,-4.23389482498,19.9377193451,0.01,0.0,0.0,0.0,0.01,0.0,0.0,0.0,0.01
1584954941616205921,2455,1584954941615860997,imu_link,-0.164439931512,-0.0564520843327,0.560291171074,0.809843540192,0.0,0.0,0.0,0.0,0.0,0.0,0.0,0.0,0.0,0.0311304368079,-2.73403978348,-1.54411685467,0.01,0.0,0.0,0.0,0.01,0.0,0.0,0.0,0.01,-28.8733940125,-2.27581977844,30.459236145,0.01,0.0,0.0,0.0,0.01,0.0,0.0,0.0,0.01
1584954941641121266,2456,1584954941640808879,imu_link,-0.135886520147,-0.0860576033592,0.548639893532,0.820440888405,0.0,0.0,0.0,0.0,0.0,0.0,0.0,0.0,0.0,0.55736207962,-2.27012968063,-1.37784981728,0.01,0.0,0.0,0.0,0.01,0.0,0.0,0.0,0.01,6.79181432724,12.7853622437,-33.094543457,0.01,0.0,0.0,0.0,0.01,0.0,0.0,0.0,0.01
1584954941667082333,2457,1584954941666778780,imu_link,-0.108989059925,-0.122406244278,0.535662710667,0.828374028206,0.0,0.0,0.0,0.0,0.0,0.0,0.0,0.0,0.0,-0.0692492350936,-4.7289557457,-1.11225605011,0.01,0.0,0.0,0.0,0.01,0.0,0.0,0.0,0.01,-8.54170227051,2.09064030647,-0.458127140999,0.01,0.0,0.0,0.0,0.01,0.0,0.0,0.0,0.01
1584954941691101279,2458,1584954941690792287,imu_link,-0.0896345898509,-0.160524517298,0.534260511398,0.825083732605,0.0,0.0,0.0,0.0,0.0,0.0,0.0,0.0,0.0,-0.272454589605,-2.6751203537,-0.385865420103,0.01,0.0,0.0,0.0,0.01,0.0,0.0,0.0,0.01,-13.3182058334,-4.23500204086,-21.5597000122,0.01,0.0,0.0,0.0,0.01,0.0,0.0,0.0,0.01
1584954941717015673,2459,1584954941716760070,imu_link,-0.0776056423783,-0.185764610767,0.535003960133,0.820511817932,0.0,0.0,0.0,0.0,0.0,0.0,0.0,0.0,0.0,-0.0939862430096,-1.93358039856,0.157888934016,0.01,0.0,0.0,0.0,0.01,0.0,0.0,0.0,0.01,-4.84921312332,10.9059638977,-10.1492919922,0.01,0.0,0.0,0.0,0.01,0.0,0.0,0.0,0.01
1584954941740979264,2460,1584954941740735244,imu_link,-0.0632915869355,-0.201787590981,0.537125110626,0.816561460495,0.0,0.0,0.0,0.0,0.0,0.0,0.0,0.0,0.0,0.460079520941,-1.53131043911,-0.0561803355813,0.01,0.0,0.0,0.0,0.01,0.0,0.0,0.0,0.01,-5.33772993088,5.13549900055,-11.510184288,0.01,0.0,0.0,0.0,0.01,0.0,0.0,0.0,0.01
1584954941767081827,2461,1584954941766753790,imu_link,-0.0488030463457,-0.209282562137,0.53827893734,0.81490790844,0.0,0.0,0.0,0.0,0.0,0.0,0.0,0.0,0.0,0.675460636616,-0.933968603611,-0.173164889216,0.01,0.0,0.0,0.0,0.01,0.0,0.0,0.0,0.01,-4.55031108856,1.71527838707,-11.2926464081,0.01,0.0,0.0,0.0,0.01,0.0,0.0,0.0,0.01
1584954941791093574,2462,1584954941790739320,imu_link,-0.0373438410461,-0.212744086981,0.538825333118,0.81425589323,0.0,0.0,0.0,0.0,0.0,0.0,0.0,0.0,0.0,0.517591774464,-0.622407197952,-0.126054123044,0.01,0.0,0.0,0.0,0.01,0.0,0.0,0.0,0.01,-3.77882146835,1.69905018806,-10.0897197723,0.01,0.0,0.0,0.0,0.01,0.0,0.0,0.0,0.01
1584954941816345688,2463,1584954941815684226,imu_link,-0.0306180175394,-0.215628877282,0.539244830608,0.813499689102,0.0,0.0,0.0,0.0,0.0,0.0,0.0,0.0,0.0,0.220173060894,-0.419171959162,-0.0275336746126,0.01,0.0,0.0,0.0,0.01,0.0,0.0,0.0,0.01,-3.5510904789,2.259765625,-9.37642383575,0.01,0.0,0.0,0.0,0.01,0.0,0.0,0.0,0.01
1584954941840929673,2464,1584954941840681470,imu_link,-0.0258484799415,-0.217983663082,0.539433598518,0.812912344933,0.0,0.0,0.0,0.0,0.0,0.0,0.0,0.0,0.0,0.228604495525,-0.362019687891,-0.0828168541193,0.01,0.0,0.0,0.0,0.01,0.0,0.0,0.0,0.01,-3.04987668991,3.35538029671,-8.6527338028,0.01,0.0,0.0,0.0,0.01,0.0,0.0,0.0,0.01
1584954941865786126,2465,1584954941865604536,imu_link,-0.02048946172,-0.219357565045,0.538998663425,0.812983870506,0.0,0.0,0.0,0.0,0.0,0.0,0.0,0.0,0.0,0.294998735189,-0.289167016745,-0.14914393425,0.01,0.0,0.0,0.0,0.01,0.0,0.0,0.0,0.01,-3.30723428726,2.9895658493,-8.71882915497,0.01,0.0,0.0,0.0,0.01,0.0,0.0,0.0,0.01
1584954941890769952,2466,1584954941890596232,imu_link,-0.0155687564984,-0.220401331782,0.537923812866,0.813522517681,0.0,0.0,0.0,0.0,0.0,0.0,0.0,0.0,0.0,0.210775092244,-0.242874413729,-0.194174587727,0.01,0.0,0.0,0.0,0.01,0.0,0.0,0.0,0.01,-3.53131389618,2.12103462219,-8.85626888275,0.01,0.0,0.0,0.0,0.01,0.0,0.0,0.0,0.01
1584954941915784938,2467,1584954941915596263,imu_link,-0.0117465183139,-0.221538126469,0.536574423313,0.81416875124,0.0,0.0,0.0,0.0,0.0,0.0,0.0,0.0,0.0,0.154564917088,-0.211466580629,-0.176972925663,0.01,0.0,0.0,0.0,0.01,0.0,0.0,0.0,0.01,-3.3817653656,2.28423452377,-8.76543426514,0.01,0.0,0.0,0.0,0.01,0.0,0.0,0.0,0.01
1584954941940906611,2468,1584954941940763251,imu_link,-0.00869781896472,-0.222674578428,0.535154104233,0.814831614494,0.0,0.0,0.0,0.0,0.0,0.0,0.0,0.0,0.0,0.0948165878654,-0.177424624562,-0.175051897764,0.01,0.0,0.0,0.0,0.01,0.0,0.0,0.0,0.01,-3.25071287155,2.26632523537,-8.66943836212,0.01,0.0,0.0,0.0,0.01,0.0,0.0,0.0,0.01
1584954941967232991,2469,1584954941966911557,imu_link,-0.00568921584636,-0.223935008049,0.533434510231,0.815639913082,0.0,0.0,0.0,0.0,0.0,0.0,0.0,0.0,0.0,0.109293572605,-0.201377034187,-0.214496716857,0.01,0.0,0.0,0.0,0.01,0.0,0.0,0.0,0.01,-3.37759852409,2.48549032211,-8.54554462433,0.01,0.0,0.0,0.0,0.01,0.0,0.0,0.0,0.01
1584954941991423205,2470,1584954941990901118,imu_link,-0.00254953047261,-0.225392848253,0.531220555305,0.816698491573,0.0,0.0,0.0,0.0,0.0,0.0,0.0,0.0,0.0,0.0904266759753,-0.228902801871,-0.268528163433,0.01,0.0,0.0,0.0,0.01,0.0,0.0,0.0,0.01,-3.13976812363,2.41392707825,-8.58396816254,0.01,0.0,0.0,0.0,0.01,0.0,0.0,0.0,0.01
1584954942017225038,2471,1584954942016747984,imu_link,0.0010153518524,-0.227627336979,0.528403937817,0.817908406258,0.0,0.0,0.0,0.0,0.0,0.0,0.0,0.0,0.0,0.078797519207,-0.287560403347,-0.302049130201,0.01,0.0,0.0,0.0,0.01,0.0,0.0,0.0,0.01,-3.58370518684,2.24708509445,-8.7263250351,0.01,0.0,0.0,0.0,0.01,0.0,0.0,0.0,0.01
1584954942041626103,2472,1584954942040777109,imu_link,0.00494845304638,-0.230514362454,0.525617420673,0.818880319595,0.0,0.0,0.0,0.0,0.0,0.0,0.0,0.0,0.0,0.0919202715158,-0.386728107929,-0.286446750164,0.01,0.0,0.0,0.0,0.01,0.0,0.0,0.0,0.01,-3.40092849731,2.09080410004,-8.36329746246,0.01,0.0,0.0,0.0,0.01,0.0,0.0,0.0,0.01
1584954942067427275,2473,1584954942066772347,imu_link,0.00870348326862,-0.234055057168,0.522707462311,0.819706916809,0.0,0.0,0.0,0.0,0.0,0.0,0.0,0.0,0.0,0.0285530425608,-0.388625741005,-0.306091964245,0.01,0.0,0.0,0.0,0.01,0.0,0.0,0.0,0.01,-3.64442753792,2.18103170395,-8.59319782257,0.01,0.0,0.0,0.0,0.01,0.0,0.0,0.0,0.01
1584954942090713309,2474,1584954942090440271,imu_link,0.0125490101054,-0.238579601049,0.519668996334,0.820284366608,0.0,0.0,0.0,0.0,0.0,0.0,0.0,0.0,0.0,0.00542890280485,-0.507631242275,-0.273183882236,0.01,0.0,0.0,0.0,0.01,0.0,0.0,0.0,0.01,-3.70910382271,1.950527668,-8.24826049805,0.01,0.0,0.0,0.0,0.01,0.0,0.0,0.0,0.01
1584954942116597334,2475,1584954942116412245,imu_link,0.0178607739508,-0.245666190982,0.516880869865,0.819855749607,0.0,0.0,0.0,0.0,0.0,0.0,0.0,0.0,0.0,-0.0189269296825,-0.874919116497,-0.245027020574,0.01,0.0,0.0,0.0,0.01,0.0,0.0,0.0,0.01,-3.39059567451,2.01518678665,-8.24565887451,0.01,0.0,0.0,0.0,0.01,0.0,0.0,0.0,0.01
1584954942140697687,2476,1584954942140401059,imu_link,0.0265706963837,-0.258457899094,0.513252794743,0.817963957787,0.0,0.0,0.0,0.0,0.0,0.0,0.0,0.0,0.0,-0.0314363576472,-1.49482762814,-0.368847429752,0.01,0.0,0.0,0.0,0.01,0.0,0.0,0.0,0.01,-3.77948760986,2.11904144287,-8.35729026794,0.01,0.0,0.0,0.0,0.01,0.0,0.0,0.0,0.01
1584954942166561103,2477,1584954942166355973,imu_link,0.0417852811515,-0.277272641659,0.50785446167,0.814529240131,0.0,0.0,0.0,0.0,0.0,0.0,0.0,0.0,0.0,0.22707504034,-2.22445011139,-0.568297624588,0.01,0.0,0.0,0.0,0.01,0.0,0.0,0.0,0.01,-4.68557786942,2.35469198227,-8.55159282684,0.01,0.0,0.0,0.0,0.01,0.0,0.0,0.0,0.01
1584954942190711183,2478,1584954942190440265,imu_link,0.0639057457447,-0.30269497633,0.499634057283,0.809109151363,0.0,0.0,0.0,0.0,0.0,0.0,0.0,0.0,0.0,0.164862781763,-2.97075724602,-0.788695812225,0.01,0.0,0.0,0.0,0.01,0.0,0.0,0.0,0.01,-4.56187915802,2.29775118828,-8.82043743134,0.01,0.0,0.0,0.0,0.01,0.0,0.0,0.0,0.01
1584954942216714522,2479,1584954942216443046,imu_link,0.0889200717211,-0.338476151228,0.486707091331,0.800401926041,0.0,0.0,0.0,0.0,0.0,0.0,0.0,0.0,0.0,-0.147753432393,-4.25423812866,-0.955975115299,0.01,0.0,0.0,0.0,0.01,0.0,0.0,0.0,0.01,-5.21928024292,1.95746922493,-8.61916923523,0.01,0.0,0.0,0.0,0.01,0.0,0.0,0.0,0.01
1584954942241631798,2480,1584954942241394135,imu_link,0.123391531408,-0.395683526993,0.467871934175,0.780579924583,0.0,0.0,0.0,0.0,0.0,0.0,0.0,0.0,0.0,-0.727590918541,-6.98087453842,-1.01636898518,0.01,0.0,0.0,0.0,0.01,0.0,0.0,0.0,0.01,-4.49962520599,1.55239033699,-10.2547683716,0.01,0.0,0.0,0.0,0.01,0.0,0.0,0.0,0.01
1584954942266709572,2481,1584954942266397852,imu_link,0.15774397552,-0.485027372837,0.434013992548,0.742628574371,0.0,0.0,0.0,0.0,0.0,0.0,0.0,0.0,0.0,-2.57489275932,-9.43113708496,-0.390799850225,0.01,0.0,0.0,0.0,0.01,0.0,0.0,0.0,0.01,-8.07792949677,2.32808446884,-18.6195297241,0.01,0.0,0.0,0.0,0.01,0.0,0.0,0.0,0.01
1584954942290639013,2482,1584954942290406055,imu_link,0.192672923207,-0.581721365452,0.387658238411,0.688620746136,0.0,0.0,0.0,0.0,0.0,0.0,0.0,0.0,0.0,-2.56254053116,-10.0950031281,-1.21549522877,0.01,0.0,0.0,0.0,0.01,0.0,0.0,0.0,0.01,-10.6977748871,5.4222202301,-14.7571907043,0.01,0.0,0.0,0.0,0.01,0.0,0.0,0.0,0.01
1584954942316577049,2483,1584954942316345279,imu_link,0.232214421034,-0.658847212791,0.337405025959,0.630995094776,0.0,0.0,0.0,0.0,0.0,0.0,0.0,0.0,0.0,-1.42422997952,-6.66340923309,-2.11568307877,0.01,0.0,0.0,0.0,0.01,0.0,0.0,0.0,0.01,-7.92579364777,-1.23061108589,-31.5922966003,0.01,0.0,0.0,0.0,0.01,0.0,0.0,0.0,0.01
1584954942341652407,2484,1584954942341356163,imu_link,0.265717953444,-0.662716448307,0.324206113815,0.620557367802,0.0,0.0,0.0,0.0,0.0,0.0,0.0,0.0,0.0,1.40319275856,1.94016492367,-1.33577358723,0.01,0.0,0.0,0.0,0.01,0.0,0.0,0.0,0.01,-9.94282627106,9.48365402222,-39.852481842,0.01,0.0,0.0,0.0,0.01,0.0,0.0,0.0,0.01
1584954942366624708,2485,1584954942366345470,imu_link,0.271914035082,-0.630503892899,0.341691225767,0.641696810722,0.0,0.0,0.0,0.0,0.0,0.0,0.0,0.0,0.0,1.98290634155,2.99367904663,-0.656969249249,0.01,0.0,0.0,0.0,0.01,0.0,0.0,0.0,0.01,7.3958363533,7.11156272888,-3.49361109734,0.01,0.0,0.0,0.0,0.01,0.0,0.0,0.0,0.01
1584954942391598451,2486,1584954942391335644,imu_link,0.282142132521,-0.599018931389,0.362563759089,0.655835211277,0.0,0.0,0.0,0.0,0.0,0.0,0.0,0.0,0.0,2.0109834671,2.24959659576,-0.282901406288,0.01,0.0,0.0,0.0,0.01,0.0,0.0,0.0,0.01,4.32166051865,5.40375232697,-2.2873775959,0.01,0.0,0.0,0.0,0.01,0.0,0.0,0.0,0.01
1584954942416612650,2487,1584954942416302658,imu_link,0.281159341335,-0.571681022644,0.385443419218,0.667505562305,0.0,0.0,0.0,0.0,0.0,0.0,0.0,0.0,0.0,1.32743167877,2.96093463898,0.728938698769,0.01,0.0,0.0,0.0,0.01,0.0,0.0,0.0,0.01,-1.06870615482,8.42385864258,-9.80965805054,0.01,0.0,0.0,0.0,0.01,0.0,0.0,0.0,0.01
1584954942441593670,2488,1584954942441285712,imu_link,0.264402836561,-0.537448346615,0.419700056314,0.681976735592,0.0,0.0,0.0,0.0,0.0,0.0,0.0,0.0,0.0,1.45807027817,4.288022995,1.75968790054,0.01,0.0,0.0,0.0,0.01,0.0,0.0,0.0,0.01,-3.79364395142,7.48484230042,-9.27896404266,0.01,0.0,0.0,0.0,0.01,0.0,0.0,0.0,0.01
1584954942466468558,2489,1584954942466240374,imu_link,0.2351821661,-0.496427386999,0.460522115231,0.697257995605,0.0,0.0,0.0,0.0,0.0,0.0,0.0,0.0,0.0,1.01038694382,4.97857141495,2.22027993202,0.01,0.0,0.0,0.0,0.01,0.0,0.0,0.0,0.01,-5.32393550873,2.67685651779,-5.94175624847,0.01,0.0,0.0,0.0,0.01,0.0,0.0,0.0,0.01
1584954942491536888,2490,1584954942491238104,imu_link,0.198883473873,-0.451026946306,0.498305827379,0.713240087032,0.0,0.0,0.0,0.0,0.0,0.0,0.0,0.0,0.0,0.787508547306,5.39346599579,1.94772648811,0.01,0.0,0.0,0.0,0.01,0.0,0.0,0.0,0.01,-8.32701778412,0.834320068359,-8.79203224182,0.01,0.0,0.0,0.0,0.01,0.0,0.0,0.0,0.01
1584954942516417671,2491,1584954942516188275,imu_link,0.15899990499,-0.399314641953,0.528759300709,0.731901943684,0.0,0.0,0.0,0.0,0.0,0.0,0.0,0.0,0.0,0.437283456326,5.88293075562,1.37104773521,0.01,0.0,0.0,0.0,0.01,0.0,0.0,0.0,0.01,-9.92244911194,-0.20471714437,-9.21891307831,0.01,0.0,0.0,0.0,0.01,0.0,0.0,0.0,0.01
1584954942541402486,2492,1584954942541181519,imu_link,0.115763567388,-0.343279212713,0.550111293793,0.752420008183,0.0,0.0,0.0,0.0,0.0,0.0,0.0,0.0,0.0,0.220433697104,6.12454462051,0.862116336823,0.01,0.0,0.0,0.0,0.01,0.0,0.0,0.0,0.01,-10.610991478,1.97672855854,-10.4189624786,0.01,0.0,0.0,0.0,0.01,0.0,0.0,0.0,0.01
1584954942566383558,2493,1584954942566162346,imu_link,0.071822270751,-0.284326851368,0.565015673637,0.771204948425,0.0,0.0,0.0,0.0,0.0,0.0,0.0,0.0,0.0,0.124424792826,6.03082942963,0.664519846439,0.01,0.0,0.0,0.0,0.01,0.0,0.0,0.0,0.01,-10.2387208939,2.44616627693,-8.43830299377,0.01,0.0,0.0,0.0,0.01,0.0,0.0,0.0,0.01
1584954942591426831,2494,1584954942591188892,imu_link,0.0282971039414,-0.233023166656,0.572356164455,0.785689532757,0.0,0.0,0.0,0.0,0.0,0.0,0.0,0.0,0.0,-0.671118617058,5.22784423828,0.379035443068,0.01,0.0,0.0,0.0,0.01,0.0,0.0,0.0,0.01,-14.1877593994,3.41294169426,-13.8798084259,0.01,0.0,0.0,0.0,0.01,0.0,0.0,0.0,0.01
1584954942616741464,2495,1584954942616156848,imu_link,-0.0216845590621,-0.18456761539,0.575484395027,0.796418488026,0.0,0.0,0.0,0.0,0.0,0.0,0.0,0.0,0.0,-0.926603376865,5.82594871521,0.684578299522,0.01,0.0,0.0,0.0,0.01,0.0,0.0,0.0,0.01,-22.8166885376,7.42944288254,-18.3139076233,0.01,0.0,0.0,0.0,0.01,0.0,0.0,0.0,0.01
1584954942641441854,2496,1584954942641141514,imu_link,-0.0759279429913,-0.13421690464,0.578572630882,0.800921022892,0.0,0.0,0.0,0.0,0.0,0.0,0.0,0.0,0.0,-1.23505914211,5.4620051384,0.956233859062,0.01,0.0,0.0,0.0,0.01,0.0,0.0,0.0,0.01,-22.3970279694,2.96048021317,-6.78636074066,0.01,0.0,0.0,0.0,0.01,0.0,0.0,0.0,0.01
1584954942666353299,2497,1584954942666104502,imu_link,-0.124184116721,-0.096956409514,0.580626189709,0.798780918121,0.0,0.0,0.0,0.0,0.0,0.0,0.0,0.0,0.0,-1.36320602894,3.98656249046,0.900469064713,0.01,0.0,0.0,0.0,0.01,0.0,0.0,0.0,0.01,-25.7700843811,-1.62856292725,-0.578683197498,0.01,0.0,0.0,0.0,0.01,0.0,0.0,0.0,0.01
1584954942692168099,2498,1584954942691047781,imu_link,-0.154175922275,-0.07500538975,0.578756392002,0.797273516655,0.0,0.0,0.0,0.0,0.0,0.0,0.0,0.0,0.0,-0.589585006237,1.83396708965,-0.0313357152045,0.01,0.0,0.0,0.0,0.01,0.0,0.0,0.0,0.01,-30.118391037,-2.36894392967,14.1764526367,0.01,0.0,0.0,0.0,0.01,0.0,0.0,0.0,0.01
1584954942716143234,2499,1584954942716002973,imu_link,-0.154191568494,-0.0828850418329,0.573486328125,0.800292789936,0.0,0.0,0.0,0.0,0.0,0.0,0.0,0.0,0.0,-0.0377406142652,-2.86557006836,-0.796184539795,0.01,0.0,0.0,0.0,0.01,0.0,0.0,0.0,0.01,-15.4594535828,0.611334085464,27.4685096741,0.01,0.0,0.0,0.0,0.01,0.0,0.0,0.0,0.01
1584954942741080094,2500,1584954942740959988,imu_link,-0.120834812522,-0.115945972502,0.564403414726,0.808334290981,0.0,0.0,0.0,0.0,0.0,0.0,0.0,0.0,0.0,0.516156494617,-2.90085840225,-1.12347924709,0.01,0.0,0.0,0.0,0.01,0.0,0.0,0.0,0.01,0.255868673325,11.948677063,-26.3543777466,0.01,0.0,0.0,0.0,0.01,0.0,0.0,0.0,0.01
1584954942766453799,2501,1584954942766199223,imu_link,-0.0953382402658,-0.153406366706,0.553916215897,0.812744677067,0.0,0.0,0.0,0.0,0.0,0.0,0.0,0.0,0.0,-0.881651997566,-4.22377824783,-0.854620337486,0.01,0.0,0.0,0.0,0.01,0.0,0.0,0.0,0.01,-8.05335426331,2.88728928566,-3.03155755997,0.01,0.0,0.0,0.0,0.01,0.0,0.0,0.0,0.01
1584954942791246947,2502,1584954942791018460,imu_link,-0.0741815939546,-0.192776530981,0.551685571671,0.8080701828,0.0,0.0,0.0,0.0,0.0,0.0,0.0,0.0,0.0,-0.235215231776,-2.89616298676,-0.433228522539,0.01,0.0,0.0,0.0,0.01,0.0,0.0,0.0,0.01,-14.2542076111,-1.1727335453,-24.5958786011,0.01,0.0,0.0,0.0,0.01,0.0,0.0,0.0,0.01
1584954942816178842,2503,1584954942816000434,imu_link,-0.0571175068617,-0.216323643923,0.552783310413,0.802728116512,0.0,0.0,0.0,0.0,0.0,0.0,0.0,0.0,0.0,0.168815270066,-2.07129955292,0.0755314305425,0.01,0.0,0.0,0.0,0.01,0.0,0.0,0.0,0.01,-5.51441431046,8.4255027771,-10.8256931305,0.01,0.0,0.0,0.0,0.01,0.0,0.0,0.0,0.01
1584954942841694943,2504,1584954942841220024,imu_link,-0.0398775041103,-0.229269310832,0.554200410843,0.799191594124,0.0,0.0,0.0,0.0,0.0,0.0,0.0,0.0,0.0,0.704586386681,-1.38316369057,-0.147280186415,0.01,0.0,0.0,0.0,0.01,0.0,0.0,0.0,0.01,-5.33085584641,5.83633613586,-11.2136421204,0.01,0.0,0.0,0.0,0.01,0.0,0.0,0.0,0.01
1584954942866848852,2505,1584954942866357724,imu_link,-0.024164032191,-0.232454270124,0.55470508337,0.798550844193,0.0,0.0,0.0,0.0,0.0,0.0,0.0,0.0,0.0,0.813814103603,-0.73098808527,-0.267752438784,0.01,0.0,0.0,0.0,0.01,0.0,0.0,0.0,0.01,-3.93911886215,1.32280254364,-9.97707748413,0.01,0.0,0.0,0.0,0.01,0.0,0.0,0.0,0.01
1584954942892079168,2506,1584954942891310594,imu_link,-0.014961133711,-0.233049541712,0.554661810398,0.798632740974,0.0,0.0,0.0,0.0,0.0,0.0,0.0,0.0,0.0,0.419411182404,-0.311397224665,-0.114489257336,0.01,0.0,0.0,0.0,0.01,0.0,0.0,0.0,0.01,-3.99007821083,1.63248932362,-9.50894451141,0.01,0.0,0.0,0.0,0.01,0.0,0.0,0.0,0.01
1584954942916895950,2507,1584954942916210276,imu_link,-0.0106475083157,-0.233957096934,0.554845631123,0.798308908939,0.0,0.0,0.0,0.0,0.0,0.0,0.0,0.0,0.0,0.151174202561,-0.23743468523,-0.0264556743205,0.01,0.0,0.0,0.0,0.01,0.0,0.0,0.0,0.01,-3.67485809326,2.39882969856,-8.89404296875,0.01,0.0,0.0,0.0,0.01,0.0,0.0,0.0,0.01
1584954942941065005,2508,1584954942940853249,imu_link,-0.00798369105905,-0.235245868564,0.554825723171,0.797975003719,0.0,0.0,0.0,0.0,0.0,0.0,0.0,0.0,0.0,0.112063005567,-0.201198726892,-0.0623080469668,0.01,0.0,0.0,0.0,0.01,0.0,0.0,0.0,0.01,-3.39755105972,3.16883039474,-8.51490116119,0.01,0.0,0.0,0.0,0.01,0.0,0.0,0.0,0.01
1584954942966104069,2509,1584954942965857423,imu_link,-0.00470365397632,-0.236037373543,0.554234087467,0.798178434372,0.0,0.0,0.0,0.0,0.0,0.0,0.0,0.0,0.0,0.194317504764,-0.190526723862,-0.137527346611,0.01,0.0,0.0,0.0,0.01,0.0,0.0,0.0,0.01,-3.48943567276,2.8503909111,-8.46246814728,0.01,0.0,0.0,0.0,0.01,0.0,0.0,0.0,0.01
1584954942990940112,2510,1584954942990766589,imu_link,-0.00110766221769,-0.236422210932,0.553254783154,0.798756897449,0.0,0.0,0.0,0.0,0.0,0.0,0.0,0.0,0.0,0.178540840745,-0.150054171681,-0.151830375195,0.01,0.0,0.0,0.0,0.01,0.0,0.0,0.0,0.01,-3.78215646744,2.27686262131,-8.58117961884,0.01,0.0,0.0,0.0,0.01,0.0,0.0,0.0,0.01
1584954943016081651,2511,1584954943015844421,imu_link,0.00167903862894,-0.236761078238,0.552282273769,0.799328267574,0.0,0.0,0.0,0.0,0.0,0.0,0.0,0.0,0.0,0.122634112835,-0.125099956989,-0.130946472287,0.01,0.0,0.0,0.0,0.01,0.0,0.0,0.0,0.01,-3.64958715439,2.33892941475,-8.60143470764,0.01,0.0,0.0,0.0,0.01,0.0,0.0,0.0,0.01
1584954943041113238,2512,1584954943040840725,imu_link,0.00378636037931,-0.237034127116,0.551432490349,0.799826741219,0.0,0.0,0.0,0.0,0.0,0.0,0.0,0.0,0.0,0.104536511004,-0.0887885689735,-0.109169408679,0.01,0.0,0.0,0.0,0.01,0.0,0.0,0.0,0.01,-3.62252163887,2.41872286797,-8.4495639801,0.01,0.0,0.0,0.0,0.01,0.0,0.0,0.0,0.01
1584954943066191387,2513,1584954943065856042,imu_link,0.00589658878744,-0.237236484885,0.550510585308,0.800388813019,0.0,0.0,0.0,0.0,0.0,0.0,0.0,0.0,0.0,0.110074236989,-0.105347596109,-0.137403696775,0.01,0.0,0.0,0.0,0.01,0.0,0.0,0.0,0.01,-3.59128475189,2.43458890915,-8.45877838135,0.01,0.0,0.0,0.0,0.01,0.0,0.0,0.0,0.01
1584954943091174424,2514,1584954943090867990,imu_link,0.00832939147949,-0.237641185522,0.549325525761,0.801061093807,0.0,0.0,0.0,0.0,0.0,0.0,0.0,0.0,0.0,0.116391420364,-0.12927955389,-0.161665290594,0.01,0.0,0.0,0.0,0.01,0.0,0.0,0.0,0.01,-3.56899404526,2.33274936676,-8.47051811218,0.01,0.0,0.0,0.0,0.01,0.0,0.0,0.0,0.01
1584954943116055382,2515,1584954943115814502,imu_link,0.0111736059189,-0.238331303,0.547783255577,0.801877140999,0.0,0.0,0.0,0.0,0.0,0.0,0.0,0.0,0.0,0.126052454114,-0.18417917192,-0.205201879144,0.01,0.0,0.0,0.0,0.01,0.0,0.0,0.0,0.01,-3.27363586426,2.28070306778,-8.25605583191,0.01,0.0,0.0,0.0,0.01,0.0,0.0,0.0,0.01
1584954943141062205,2516,1584954943140769127,imu_link,0.014464606531,-0.239807039499,0.545988857746,0.802608013153,0.0,0.0,0.0,0.0,0.0,0.0,0.0,0.0,0.0,0.109156168997,-0.22782087326,-0.208672359586,0.01,0.0,0.0,0.0,0.01,0.0,0.0,0.0,0.01,-3.59346795082,2.0312936306,-8.22657871246,0.01,0.0,0.0,0.0,0.01,0.0,0.0,0.0,0.01
1584954943166055958,2517,1584954943165775481,imu_link,0.0191760305315,-0.242677971721,0.543616294861,0.803256511688,0.0,0.0,0.0,0.0,0.0,0.0,0.0,0.0,0.0,0.119642548263,-0.447315067053,-0.309343993664,0.01,0.0,0.0,0.0,0.01,0.0,0.0,0.0,0.01,-3.90627717972,2.14718842506,-8.59553337097,0.01,0.0,0.0,0.0,0.01,0.0,0.0,0.0,0.01
1584954943191009675,2518,1584954943190752051,imu_link,0.0242643691599,-0.246456637979,0.540362298489,0.804163515568,0.0,0.0,0.0,0.0,0.0,0.0,0.0,0.0,0.0,0.075077354908,-0.457502394915,-0.339286893606,0.01,0.0,0.0,0.0,0.01,0.0,0.0,0.0,0.01,-3.85709547997,2.28587055206,-8.28414535522,0.01,0.0,0.0,0.0,0.01,0.0,0.0,0.0,0.01
1584954943215944334,2519,1584954943215736693,imu_link,0.0296955667436,-0.25146266818,0.5367628932,0.804841816425,0.0,0.0,0.0,0.0,0.0,0.0,0.0,0.0,0.0,0.0372179485857,-0.64142781496,-0.372384518385,0.01,0.0,0.0,0.0,0.01,0.0,0.0,0.0,0.01,-3.89773511887,2.53901004791,-8.47142028809,0.01,0.0,0.0,0.0,0.01,0.0,0.0,0.0,0.01
1584954943240955489,2520,1584954943240710565,imu_link,0.0376131013036,-0.260991185904,0.532119214535,0.804560780525,0.0,0.0,0.0,0.0,0.0,0.0,0.0,0.0,0.0,-0.00822158437222,-1.22706067562,-0.483108431101,0.01,0.0,0.0,0.0,0.01,0.0,0.0,0.0,0.01,-3.51767301559,2.08512306213,-8.39262676239,0.01,0.0,0.0,0.0,0.01,0.0,0.0,0.0,0.01
1584954943266024371,2521,1584954943265696179,imu_link,0.0509534478188,-0.277041256428,0.52549546957,0.802811563015,0.0,0.0,0.0,0.0,0.0,0.0,0.0,0.0,0.0,0.142139539123,-1.9129897356,-0.659668266773,0.01,0.0,0.0,0.0,0.01,0.0,0.0,0.0,0.01,-4.98264884949,1.9725651741,-8.54782772064,0.01,0.0,0.0,0.0,0.01,0.0,0.0,0.0,0.01
1584954943290939806,2522,1584954943290683699,imu_link,0.0700413659215,-0.298894405365,0.516790747643,0.799176931381,0.0,0.0,0.0,0.0,0.0,0.0,0.0,0.0,0.0,0.0782537609339,-2.68618130684,-0.790053367615,0.01,0.0,0.0,0.0,0.01,0.0,0.0,0.0,0.01,-4.29560565948,2.40577220917,-9.1188621521,0.01,0.0,0.0,0.0,0.01,0.0,0.0,0.0,0.01
1584954943315880196,2523,1584954943315650669,imu_link,0.0946732237935,-0.33204844594,0.504706799984,0.791234493256,0.0,0.0,0.0,0.0,0.0,0.0,0.0,0.0,0.0,-0.0522858612239,-3.98363661766,-0.877801477909,0.01,0.0,0.0,0.0,0.01,0.0,0.0,0.0,0.01,-5.69819021225,2.81720662117,-8.71951007843,0.01,0.0,0.0,0.0,0.01,0.0,0.0,0.0,0.01
1584954943340880008,2524,1584954943340671489,imu_link,0.131069868803,-0.385384231806,0.487411201,0.772483050823,0.0,0.0,0.0,0.0,0.0,0.0,0.0,0.0,0.0,-0.428313851357,-6.51691389084,-0.859866023064,0.01,0.0,0.0,0.0,0.01,0.0,0.0,0.0,0.01,-1.3477396965,1.85230588913,-12.8910655975,0.01,0.0,0.0,0.0,0.01,0.0,0.0,0.0,0.01
1584954943365908426,2525,1584954943365641123,imu_link,0.173312559724,-0.471906244755,0.454891055822,0.735079169273,0.0,0.0,0.0,0.0,0.0,0.0,0.0,0.0,0.0,-2.25839543343,-9.60779190063,-0.498574584723,0.01,0.0,0.0,0.0,0.01,0.0,0.0,0.0,0.01,-7.74737501144,0.920966029167,-22.0669822693,0.01,0.0,0.0,0.0,0.01,0.0,0.0,0.0,0.01
1584954943390931659,2526,1584954943390606606,imu_link,0.211156457663,-0.565973997116,0.411043167114,0.682737112045,0.0,0.0,0.0,0.0,0.0,0.0,0.0,0.0,0.0,-2.2267947197,-9.42366886139,-1.07828891277,0.01,0.0,0.0,0.0,0.01,0.0,0.0,0.0,0.01,-10.9995880127,6.77878713608,-22.2912158966,0.01,0.0,0.0,0.0,0.01,0.0,0.0,0.0,0.01
1584954943415803237,2527,1584954943415585246,imu_link,0.251302927732,-0.640525460243,0.362080782652,0.628865242004,0.0,0.0,0.0,0.0,0.0,0.0,0.0,0.0,0.0,-0.947680532932,-6.31127119064,-2.30206656456,0.01,0.0,0.0,0.0,0.01,0.0,0.0,0.0,0.01,-6.74877023697,-5.71369600296,-30.5136604309,0.01,0.0,0.0,0.0,0.01,0.0,0.0,0.0,0.01
1584954943440895051,2528,1584954943440610306,imu_link,0.288669586182,-0.641567230225,0.348014980555,0.619634628296,0.0,0.0,0.0,0.0,0.0,0.0,0.0,0.0,0.0,1.41124224663,1.62618494034,-1.74282383919,0.01,0.0,0.0,0.0,0.01,0.0,0.0,0.0,0.01,-7.21990346909,6.69768857956,-37.1164588928,0.01,0.0,0.0,0.0,0.01,0.0,0.0,0.0,0.01
1584954943465853976,2529,1584954943465594358,imu_link,0.295759379864,-0.613959729671,0.358796805143,0.637843906879,0.0,0.0,0.0,0.0,0.0,0.0,0.0,0.0,0.0,1.56907498837,2.32311797142,-0.765981376171,0.01,0.0,0.0,0.0,0.01,0.0,0.0,0.0,0.01,8.4061126709,8.84594345093,-3.78179240227,0.01,0.0,0.0,0.0,0.01,0.0,0.0,0.0,0.01
1584954943491018253,2530,1584954943490613258,imu_link,0.305230110884,-0.588005542755,0.376545667648,0.647531807423,0.0,0.0,0.0,0.0,0.0,0.0,0.0,0.0,0.0,1.7857863903,1.9066619873,-0.110765077174,0.01,0.0,0.0,0.0,0.01,0.0,0.0,0.0,0.01,4.01754188538,6.96148967743,-6.08496332169,0.01,0.0,0.0,0.0,0.01,0.0,0.0,0.0,0.01
1584954943515799334,2531,1584954943515525370,imu_link,0.299872875214,-0.562387645245,0.401051282883,0.657992601395,0.0,0.0,0.0,0.0,0.0,0.0,0.0,0.0,0.0,1.15425920486,3.14926886559,1.04314208031,0.01,0.0,0.0,0.0,0.01,0.0,0.0,0.0,0.01,-0.494275569916,8.35964679718,-11.3663568497,0.01,0.0,0.0,0.0,0.01,0.0,0.0,0.0,0.01
1584954943540641141,2532,1584954943540461103,imu_link,0.278790235519,-0.529299795628,0.437005281448,0.671672642231,0.0,0.0,0.0,0.0,0.0,0.0,0.0,0.0,0.0,1.32950246334,4.29624986649,1.90944731236,0.01,0.0,0.0,0.0,0.01,0.0,0.0,0.0,0.01,-2.61333060265,6.92414522171,-8.38153648376,0.01,0.0,0.0,0.0,0.01,0.0,0.0,0.0,0.01
1584954943565607759,2533,1584954943565443270,imu_link,0.248892873526,-0.490058809519,0.478217840195,0.684983491898,0.0,0.0,0.0,0.0,0.0,0.0,0.0,0.0,0.0,1.07506632805,4.83738517761,2.21386265755,0.01,0.0,0.0,0.0,0.01,0.0,0.0,0.0,0.01,-5.13458204269,2.93028879166,-6.98499393463,0.01,0.0,0.0,0.0,0.01,0.0,0.0,0.0,0.01
1584954943590683043,2534,1584954943590507407,imu_link,0.211988374591,-0.44569671154,0.517048954964,0.69933950901,0.0,0.0,0.0,0.0,0.0,0.0,0.0,0.0,0.0,0.817837119102,5.43159675598,2.01304101944,0.01,0.0,0.0,0.0,0.01,0.0,0.0,0.0,0.01,-7.42595529556,1.00099527836,-9.4283285141,0.01,0.0,0.0,0.0,0.01,0.0,0.0,0.0,0.01
1584954943615788926,2535,1584954943615662204,imu_link,0.170890420675,-0.394167453051,0.549447596073,0.716614186764,0.0,0.0,0.0,0.0,0.0,0.0,0.0,0.0,0.0,0.637408912182,5.93011188507,1.47538852692,0.01,0.0,0.0,0.0,0.01,0.0,0.0,0.0,0.01,-8.93029880524,0.879656612873,-9.70284175873,0.01,0.0,0.0,0.0,0.01,0.0,0.0,0.0,0.01
1584954943640707277,2536,1584954943640500695,imu_link,0.127346709371,-0.337500631809,0.573726773262,0.735332429409,0.0,0.0,0.0,0.0,0.0,0.0,0.0,0.0,0.0,0.400054991245,6.19536209106,1.00828254223,0.01,0.0,0.0,0.0,0.01,0.0,0.0,0.0,0.01,-10.3961524963,2.5755443573,-11.5836496353,0.01,0.0,0.0,0.0,0.01,0.0,0.0,0.0,0.01
1584954943666576361,2537,1584954943666027050,imu_link,0.0790284350514,-0.27780303359,0.591975271702,0.75242626667,0.0,0.0,0.0,0.0,0.0,0.0,0.0,0.0,0.0,0.0664697140455,6.46173000336,1.00789797306,0.01,0.0,0.0,0.0,0.01,0.0,0.0,0.0,0.01,-11.0072135925,4.09101963043,-11.713766098,0.01,0.0,0.0,0.0,0.01,0.0,0.0,0.0,0.01
1584954943691486928,2538,1584954943690840715,imu_link,0.0265130884945,-0.22099237144,0.605060100555,0.764435589314,0.0,0.0,0.0,0.0,0.0,0.0,0.0,0.0,0.0,-0.483767032623,6.11433267593,1.02390611172,0.01,0.0,0.0,0.0,0.01,0.0,0.0,0.0,0.01,-15.9432430267,5.51606798172,-15.489440918,0.01,0.0,0.0,0.0,0.01,0.0,0.0,0.0,0.01
1584954943715442735,2539,1584954943715327582,imu_link,-0.0322910472751,-0.164009600878,0.614349484444,0.771124482155,0.0,0.0,0.0,0.0,0.0,0.0,0.0,0.0,0.0,-0.731207787991,6.85054111481,1.21969556808,0.01,0.0,0.0,0.0,0.01,0.0,0.0,0.0,0.01,-27.9394226074,6.11454200745,-20.5080184937,0.01,0.0,0.0,0.0,0.01,0.0,0.0,0.0,0.01
1584954943740697558,2540,1584954943740420503,imu_link,-0.0920377969742,-0.105466224253,0.617419838905,0.774079203606,0.0,0.0,0.0,0.0,0.0,0.0,0.0,0.0,0.0,-0.845218241215,6.04441070557,0.767899632454,0.01,0.0,0.0,0.0,0.01,0.0,0.0,0.0,0.01,-28.28556633,0.482253462076,-4.03558778763,0.01,0.0,0.0,0.0,0.01,0.0,0.0,0.0,0.01
1584954943765677885,2541,1584954943765394301,imu_link,-0.138698190451,-0.0644907206297,0.610757529736,0.776903510094,0.0,0.0,0.0,0.0,0.0,0.0,0.0,0.0,0.0,-0.833549320698,4.16156816483,-0.446205765009,0.01,0.0,0.0,0.0,0.01,0.0,0.0,0.0,0.01,-34.1264152527,-4.9738111496,6.07632064819,0.01,0.0,0.0,0.0,0.01,0.0,0.0,0.0,0.01
1584954943790549336,2542,1584954943790351421,imu_link,-0.164913445711,-0.0505939386785,0.591961562634,0.787289917469,0.0,0.0,0.0,0.0,0.0,0.0,0.0,0.0,0.0,-1.0049393177,0.873535692692,-1.95776283741,0.01,0.0,0.0,0.0,0.01,0.0,0.0,0.0,0.01,-35.1074676514,-3.87154126167,27.7897491455,0.01,0.0,0.0,0.0,0.01,0.0,0.0,0.0,0.01
1584954943815547036,2543,1584954943815347377,imu_link,-0.133911639452,-0.0788932740688,0.57601994276,0.802523910999,0.0,0.0,0.0,0.0,0.0,0.0,0.0,0.0,0.0,1.55640411377,-3.63267087936,-2.41151213646,0.01,0.0,0.0,0.0,0.01,0.0,0.0,0.0,0.01,-4.78612327576,-7.17334365845,-5.20115089417,0.01,0.0,0.0,0.0,0.01,0.0,0.0,0.0,0.01
1584954943840656338,2544,1584954943840376137,imu_link,-0.111726537347,-0.104925766587,0.563816249371,0.811553418636,0.0,0.0,0.0,0.0,0.0,0.0,0.0,0.0,0.0,-0.0808879584074,-2.84756422043,-1.78949999809,0.01,0.0,0.0,0.0,0.01,0.0,0.0,0.0,0.01,2.50619792938,8.24506187439,-5.85836744308,0.01,0.0,0.0,0.0,0.01,0.0,0.0,0.0,0.01
1584954943865752864,2545,1584954943865409354,imu_link,-0.0883148387074,-0.151781454682,0.563141465187,0.807486653328,0.0,0.0,0.0,0.0,0.0,0.0,0.0,0.0,0.0,-0.378069460392,-3.33689236641,-0.226718440652,0.01,0.0,0.0,0.0,0.01,0.0,0.0,0.0,0.01,-21.0682373047,0.677567720413,-35.2132034302,0.01,0.0,0.0,0.0,0.01,0.0,0.0,0.0,0.01
1584954943890704762,2546,1584954943890389294,imu_link,-0.0690529197454,-0.18098179996,0.562160611153,0.804022908211,0.0,0.0,0.0,0.0,0.0,0.0,0.0,0.0,0.0,-0.296992629766,-2.46949410439,-0.128125533462,0.01,0.0,0.0,0.0,0.01,0.0,0.0,0.0,0.01,-0.499098777771,8.27826786041,-9.23124980927,0.01,0.0,0.0,0.0,0.01,0.0,0.0,0.0,0.01
1584954943915688280,2547,1584954943915344531,imu_link,-0.0514526069164,-0.200732499361,0.564670205116,0.798878371716,0.0,0.0,0.0,0.0,0.0,0.0,0.0,0.0,0.0,0.512699306011,-1.84089326859,-0.0747876390815,0.01,0.0,0.0,0.0,0.01,0.0,0.0,0.0,0.01,-6.58868265152,2.24703812599,-12.7297430038,0.01,0.0,0.0,0.0,0.01,0.0,0.0,0.0,0.01
1584954943940525060,2548,1584954943940270925,imu_link,-0.0360739678144,-0.209128439426,0.56620568037,0.796476662159,0.0,0.0,0.0,0.0,0.0,0.0,0.0,0.0,0.0,0.695357143879,-0.916347801685,-0.114680968225,0.01,0.0,0.0,0.0,0.01,0.0,0.0,0.0,0.01,-5.72075366974,3.49472141266,-12.2151870728,0.01,0.0,0.0,0.0,0.01,0.0,0.0,0.0,0.01
1584954943965549808,2549,1584954943965279916,imu_link,-0.0252039227635,-0.211365371943,0.567007899284,0.795733392239,0.0,0.0,0.0,0.0,0.0,0.0,0.0,0.0,0.0,0.529309093952,-0.518233537674,-0.0895226895809,0.01,0.0,0.0,0.0,0.01,0.0,0.0,0.0,0.01,-4.25617218018,2.33876371384,-10.3582286835,0.01,0.0,0.0,0.0,0.01,0.0,0.0,0.0,0.01
1584954943990531305,2550,1584954943990261227,imu_link,-0.0187554061413,-0.212365031242,0.567633986473,0.795198738575,0.0,0.0,0.0,0.0,0.0,0.0,0.0,0.0,0.0,0.26643705368,-0.285911619663,-0.0100298896432,0.01,0.0,0.0,0.0,0.01,0.0,0.0,0.0,0.01,-3.6581094265,1.7787951231,-9.55335998535,0.01,0.0,0.0,0.0,0.01,0.0,0.0,0.0,0.01
1584954944015362667,2551,1584954944015199865,imu_link,-0.0151074426249,-0.213094115257,0.568302631378,0.794603586197,0.0,0.0,0.0,0.0,0.0,0.0,0.0,0.0,0.0,0.205378159881,-0.206899926066,-0.0125437313691,0.01,0.0,0.0,0.0,0.01,0.0,0.0,0.0,0.01,-3.02020764351,3.00987482071,-8.77981853485,0.01,0.0,0.0,0.0,0.01,0.0,0.0,0.0,0.01
1584954944040407627,2552,1584954944040198275,imu_link,-0.0112806931138,-0.213473796844,0.568384587765,0.79450660944,0.0,0.0,0.0,0.0,0.0,0.0,0.0,0.0,0.0,0.266887813807,-0.182048633695,-0.0823024362326,0.01,0.0,0.0,0.0,0.01,0.0,0.0,0.0,0.01,-3.15384173393,3.06701302528,-8.65378093719,0.01,0.0,0.0,0.0,0.01,0.0,0.0,0.0,0.01
1584954944065342462,2553,1584954944065131842,imu_link,-0.00729935104027,-0.213290035725,0.568004488945,0.794874250889,0.0,0.0,0.0,0.0,0.0,0.0,0.0,0.0,0.0,0.234608575702,-0.145352065563,-0.112792856991,0.01,0.0,0.0,0.0,0.01,0.0,0.0,0.0,0.01,-3.03982830048,2.38267469406,-8.57831668854,0.01,0.0,0.0,0.0,0.01,0.0,0.0,0.0,0.01
1584954944090442027,2554,1584954944090159669,imu_link,-0.00386320566759,-0.213239938021,0.567380130291,0.795357525349,0.0,0.0,0.0,0.0,0.0,0.0,0.0,0.0,0.0,0.196667000651,-0.137593045831,-0.12692424655,0.01,0.0,0.0,0.0,0.01,0.0,0.0,0.0,0.01,-3.06661272049,2.27168416977,-8.71019649506,0.01,0.0,0.0,0.0,0.01,0.0,0.0,0.0,0.01
1584954944115474355,2555,1584954944115203309,imu_link,-0.000720630399883,-0.213207855821,0.566571652889,0.795951366425,0.0,0.0,0.0,0.0,0.0,0.0,0.0,0.0,0.0,0.184631749988,-0.132725909352,-0.141019910574,0.01,0.0,0.0,0.0,0.01,0.0,0.0,0.0,0.01,-3.05999517441,2.17973542213,-8.64422225952,0.01,0.0,0.0,0.0,0.01,0.0,0.0,0.0,0.01
1584954944140498458,2556,1584954944140205539,imu_link,0.00244770059362,-0.213359028101,0.565514266491,0.796658933163,0.0,0.0,0.0,0.0,0.0,0.0,0.0,0.0,0.0,0.178682625294,-0.152576297522,-0.162567868829,0.01,0.0,0.0,0.0,0.01,0.0,0.0,0.0,0.01,-2.88233423233,2.42722249031,-8.45640659332,0.01,0.0,0.0,0.0,0.01,0.0,0.0,0.0,0.01
1584954944165489806,2557,1584954944165195897,imu_link,0.00620050868019,-0.21398383379,0.564062833786,0.797499597073,0.0,0.0,0.0,0.0,0.0,0.0,0.0,0.0,0.0,0.188435152173,-0.218781650066,-0.222034886479,0.01,0.0,0.0,0.0,0.01,0.0,0.0,0.0,0.01,-2.97076511383,2.33565735817,-8.56346893311,0.01,0.0,0.0,0.0,0.01,0.0,0.0,0.0,0.01
1584954944190461750,2558,1584954944190177162,imu_link,0.0104946019128,-0.215539246798,0.561853289604,0.79859483242,0.0,0.0,0.0,0.0,0.0,0.0,0.0,0.0,0.0,0.151834324002,-0.304507672787,-0.274441957474,0.01,0.0,0.0,0.0,0.01,0.0,0.0,0.0,0.01,-3.30397701263,1.98249745369,-8.68098068237,0.01,0.0,0.0,0.0,0.01,0.0,0.0,0.0,0.01
1584954944215438727,2559,1584954944215163947,imu_link,0.0150114670396,-0.218260496855,0.559237360954,0.799619019032,0.0,0.0,0.0,0.0,0.0,0.0,0.0,0.0,0.0,0.081711217761,-0.411462366581,-0.297174751759,0.01,0.0,0.0,0.0,0.01,0.0,0.0,0.0,0.01,-3.17224168777,1.80979633331,-8.76418113708,0.01,0.0,0.0,0.0,0.01,0.0,0.0,0.0,0.01
1584954944240396175,2560,1584954944240099030,imu_link,0.0197564214468,-0.222579941154,0.556068539619,0.80053460598,0.0,0.0,0.0,0.0,0.0,0.0,0.0,0.0,0.0,0.0317061580718,-0.51799839735,-0.334640204906,0.01,0.0,0.0,0.0,0.01,0.0,0.0,0.0,0.01,-4.10080432892,1.79561161995,-8.98870182037,0.01,0.0,0.0,0.0,0.01,0.0,0.0,0.0,0.01
1584954944265322297,2561,1584954944265084379,imu_link,0.0249472204596,-0.228248298168,0.552364110947,0.801357746124,0.0,0.0,0.0,0.0,0.0,0.0,0.0,0.0,0.0,-0.0101597495377,-0.618786334991,-0.373805105686,0.01,0.0,0.0,0.0,0.01,0.0,0.0,0.0,0.01,-3.43413496017,1.39765310287,-8.44918632507,0.01,0.0,0.0,0.0,0.01,0.0,0.0,0.0,0.01
1584954944290550421,2562,1584954944290162170,imu_link,0.0334044992924,-0.238142833114,0.548121213913,0.801083862782,0.0,0.0,0.0,0.0,0.0,0.0,0.0,0.0,0.0,0.0622162409127,-1.37144720554,-0.44868016243,0.01,0.0,0.0,0.0,0.01,0.0,0.0,0.0,0.01,-3.72679710388,1.73879671097,-8.4992275238,0.01,0.0,0.0,0.0,0.01,0.0,0.0,0.0,0.01
1584954944315202001,2563,1584954944314973108,imu_link,0.0466572642326,-0.25361046195,0.542375326157,0.799583554268,0.0,0.0,0.0,0.0,0.0,0.0,0.0,0.0,0.0,0.100529909134,-1.67595398426,-0.568204879761,0.01,0.0,0.0,0.0,0.01,0.0,0.0,0.0,0.01,-4.03677749634,1.75461709499,-8.52591323853,0.01,0.0,0.0,0.0,0.01,0.0,0.0,0.0,0.01
1584954944340108757,2564,1584954944339948390,imu_link,0.0646806955338,-0.274093478918,0.53457981348,0.796814739704,0.0,0.0,0.0,0.0,0.0,0.0,0.0,0.0,0.0,0.127925559878,-2.5998852253,-0.703112900257,0.01,0.0,0.0,0.0,0.01,0.0,0.0,0.0,0.01,-4.32047176361,1.58056640625,-9.1424369812,0.01,0.0,0.0,0.0,0.01,0.0,0.0,0.0,0.01
1584954944365103339,2565,1584954944364901885,imu_link,0.0866023972631,-0.305218219757,0.52429831028,0.790223479271,0.0,0.0,0.0,0.0,0.0,0.0,0.0,0.0,0.0,-0.259966731071,-3.62754034996,-0.718100011349,0.01,0.0,0.0,0.0,0.01,0.0,0.0,0.0,0.01,-1.76634168625,2.35317659378,-9.5445432663,0.01,0.0,0.0,0.0,0.01,0.0,0.0,0.0,0.01
1584954944390302065,2566,1584954944390133110,imu_link,0.119536824524,-0.355121552944,0.507893919945,0.775656819344,0.0,0.0,0.0,0.0,0.0,0.0,0.0,0.0,0.0,-0.453820735216,-6.01080322266,-0.956818580627,0.01,0.0,0.0,0.0,0.01,0.0,0.0,0.0,0.01,-0.742761015892,-0.33578696847,-11.0215673447,0.01,0.0,0.0,0.0,0.01,0.0,0.0,0.0,0.01
1584954944415332420,2567,1584954944415079310,imu_link,0.162221208215,-0.436194419861,0.480207741261,0.743518173695,0.0,0.0,0.0,0.0,0.0,0.0,0.0,0.0,0.0,-1.8425412178,-9.18786334991,-0.796507000923,0.01,0.0,0.0,0.0,0.01,0.0,0.0,0.0,0.01,-6.23339271545,-0.946457743645,-21.7549476624,0.01,0.0,0.0,0.0,0.01,0.0,0.0,0.0,0.01
1584954944440692827,2568,1584954944440225094,imu_link,0.196756839752,-0.541211009026,0.439910620451,0.689098060131,0.0,0.0,0.0,0.0,0.0,0.0,0.0,0.0,0.0,-2.78359985352,-10.2629451752,-0.614773213863,0.01,0.0,0.0,0.0,0.01,0.0,0.0,0.0,0.01,-7.18068313599,8.37276077271,-22.5128650665,0.01,0.0,0.0,0.0,0.01,0.0,0.0,0.0,0.01
1584954944466129144,2569,1584954944465294008,imu_link,0.232071310282,-0.64095813036,0.384628653526,0.622395694256,0.0,0.0,0.0,0.0,0.0,0.0,0.0,0.0,0.0,-2.73110508919,-9.8355922699,-0.716557025909,0.01,0.0,0.0,0.0,0.01,0.0,0.0,0.0,0.01,-12.9801988602,9.81177616119,-24.3686981201,0.01,0.0,0.0,0.0,0.01,0.0,0.0,0.0,0.01
1584954944490956785,2570,1584954944490364741,imu_link,0.262881100178,-0.678089797497,0.351146310568,0.58973222971,0.0,0.0,0.0,0.0,0.0,0.0,0.0,0.0,0.0,0.705995857716,-1.26008582115,-1.11635184288,0.01,0.0,0.0,0.0,0.01,0.0,0.0,0.0,0.01,-27.1528778076,20.2003993988,-48.2635650635,0.01,0.0,0.0,0.0,0.01,0.0,0.0,0.0,0.01
1584954944515754950,2571,1584954944515199863,imu_link,0.272780865431,-0.648856580257,0.36365661025,0.610188186169,0.0,0.0,0.0,0.0,0.0,0.0,0.0,0.0,0.0,1.46820306778,3.14964938164,-0.732113361359,0.01,0.0,0.0,0.0,0.01,0.0,0.0,0.0,0.01,4.92122936249,5.14339351654,-14.1124572754,0.01,0.0,0.0,0.0,0.01,0.0,0.0,0.0,0.01
1584954944540736430,2572,1584954944540291137,imu_link,0.279110878706,-0.61394238472,0.381350934505,0.632252573967,0.0,0.0,0.0,0.0,0.0,0.0,0.0,0.0,0.0,1.97626757622,2.84460663795,-0.854918122292,0.01,0.0,0.0,0.0,0.01,0.0,0.0,0.0,0.01,6.02457714081,4.17808818817,-3.36362600327,0.01,0.0,0.0,0.0,0.01,0.0,0.0,0.0,0.01
1584954944565176868,2573,1584954944564889169,imu_link,0.282493799925,-0.579617083073,0.400346785784,0.651125013828,0.0,0.0,0.0,0.0,0.0,0.0,0.0,0.0,0.0,1.46770262718,3.33326196671,-0.24338555336,0.01,0.0,0.0,0.0,0.01,0.0,0.0,0.0,0.01,0.709307610989,5.99918746948,-9.04505348206,0.01,0.0,0.0,0.0,0.01,0.0,0.0,0.0,0.01
1584954944590014835,2574,1584954944589786548,imu_link,0.26774263382,-0.54069185257,0.426206082106,0.67402869463,0.0,0.0,0.0,0.0,0.0,0.0,0.0,0.0,0.0,1.04429674149,4.62693500519,0.838650822639,0.01,0.0,0.0,0.0,0.01,0.0,0.0,0.0,0.01,-1.35502314568,7.68794870377,-9.07214927673,0.01,0.0,0.0,0.0,0.01,0.0,0.0,0.0,0.01
1584954944615014650,2575,1584954944614778250,imu_link,0.239720851183,-0.496226251125,0.460554480553,0.695832550526,0.0,0.0,0.0,0.0,0.0,0.0,0.0,0.0,0.0,0.978035449982,5.25694179535,1.6570622921,0.01,0.0,0.0,0.0,0.01,0.0,0.0,0.0,0.01,-4.04155874252,5.35307884216,-7.37863206863,0.01,0.0,0.0,0.0,0.01,0.0,0.0,0.0,0.01
1584954944640004522,2576,1584954944639754099,imu_link,0.20253662765,-0.447992265224,0.496702820063,0.715239942074,0.0,0.0,0.0,0.0,0.0,0.0,0.0,0.0,0.0,0.623075604439,5.69253587723,1.88782811165,0.01,0.0,0.0,0.0,0.01,0.0,0.0,0.0,0.01,-6.49404811859,2.03030776978,-8.41661643982,0.01,0.0,0.0,0.0,0.01,0.0,0.0,0.0,0.01
1584954944665132277,2577,1584954944664835705,imu_link,0.159862622619,-0.39410597086,0.528794288635,0.734507381916,0.0,0.0,0.0,0.0,0.0,0.0,0.0,0.0,0.0,0.539826333523,6.20212745667,1.56382834911,0.01,0.0,0.0,0.0,0.01,0.0,0.0,0.0,0.01,-9.05304145813,1.52984321117,-10.5009679794,0.01,0.0,0.0,0.0,0.01,0.0,0.0,0.0,0.01
1584954944690310790,2578,1584954944689832014,imu_link,0.114703938365,-0.333485692739,0.55409938097,0.754058420658,0.0,0.0,0.0,0.0,0.0,0.0,0.0,0.0,0.0,0.393531709909,6.55549621582,1.16349005699,0.01,0.0,0.0,0.0,0.01,0.0,0.0,0.0,0.01,-10.3538627625,2.3340511322,-11.9078350067,0.01,0.0,0.0,0.0,0.01,0.0,0.0,0.0,0.01
1584954944715135391,2579,1584954944714839899,imu_link,0.0659613907337,-0.268981188536,0.573478460312,0.77098685503,0.0,0.0,0.0,0.0,0.0,0.0,0.0,0.0,0.0,0.211430341005,6.67783164978,1.14142274857,0.01,0.0,0.0,0.0,0.01,0.0,0.0,0.0,0.01,-10.9752120972,4.16613674164,-11.5293207169,0.01,0.0,0.0,0.0,0.01,0.0,0.0,0.0,0.01
1584954944740151038,2580,1584954944739797942,imu_link,0.014862104319,-0.20785112679,0.589033007622,0.780779838562,0.0,0.0,0.0,0.0,0.0,0.0,0.0,0.0,0.0,-0.272827863693,6.31443214417,1.39324855804,0.01,0.0,0.0,0.0,0.01,0.0,0.0,0.0,0.01,-17.5629520416,6.05942249298,-18.4330482483,0.01,0.0,0.0,0.0,0.01,0.0,0.0,0.0,0.01
1584954944765066399,2581,1584954944764782578,imu_link,-0.0416052974761,-0.143351182342,0.602280497551,0.784205138683,0.0,0.0,0.0,0.0,0.0,0.0,0.0,0.0,0.0,-0.163012057543,7.12234544754,1.55171740055,0.01,0.0,0.0,0.0,0.01,0.0,0.0,0.0,0.01,-30.3669929504,6.75390863419,-20.8081760406,0.01,0.0,0.0,0.0,0.01,0.0,0.0,0.0,0.01
1584954944790012645,2582,1584954944789730118,imu_link,-0.0940263271332,-0.0783865898848,0.608164131641,0.784315705299,0.0,0.0,0.0,0.0,0.0,0.0,0.0,0.0,0.0,-0.117104433477,5.81469678879,0.863139927387,0.01,0.0,0.0,0.0,0.01,0.0,0.0,0.0,0.01,-30.0142498016,3.51264762878,0.229731559753,0.01,0.0,0.0,0.0,0.01,0.0,0.0,0.0,0.01
1584954944815093870,2583,1584954944814653277,imu_link,-0.13332439959,-0.040565315634,0.603568732738,0.785037517548,0.0,0.0,0.0,0.0,0.0,0.0,0.0,0.0,0.0,-1.21149003506,3.44895792007,-0.246633931994,0.01,0.0,0.0,0.0,0.01,0.0,0.0,0.0,0.01,-35.0664024353,-3.60302424431,9.89230728149,0.01,0.0,0.0,0.0,0.01,0.0,0.0,0.0,0.01
1584954944840037996,2584,1584954944839697915,imu_link,-0.160634309053,-0.0382623672485,0.593937933445,0.787382006645,0.0,0.0,0.0,0.0,0.0,0.0,0.0,0.0,0.0,-1.43584823608,-0.0943025201559,-0.740881741047,0.01,0.0,0.0,0.0,0.01,0.0,0.0,0.0,0.01,-32.9963569641,-0.665121138096,25.0770721436,0.01,0.0,0.0,0.0,0.01,0.0,0.0,0.0,0.01
1584954944864906852,2585,1584954944864629044,imu_link,-0.140351489186,-0.0734894350171,0.587210893631,0.793778419495,0.0,0.0,0.0,0.0,0.0,0.0,0.0,0.0,0.0,0.826268434525,-4.73942756653,-1.69654202461,0.01,0.0,0.0,0.0,0.01,0.0,0.0,0.0,0.01,-9.33571720123,-0.535692036152,-1.78483057022,0.01,0.0,0.0,0.0,0.01,0.0,0.0,0.0,0.01
1584954944889891211,2586,1584954944889598865,imu_link,-0.122218772769,-0.109851531684,0.580978810787,0.79715681076,0.0,0.0,0.0,0.0,0.0,0.0,0.0,0.0,0.0,-0.591610252857,-3.6521821022,-1.64599692822,0.01,0.0,0.0,0.0,0.01,0.0,0.0,0.0,0.01,6.32701349258,4.20606470108,-9.7311706543,0.01,0.0,0.0,0.0,0.01,0.0,0.0,0.0,0.01
1584954944914860425,2587,1584954944914603427,imu_link,-0.0892527997494,-0.167331874371,0.57445782423,0.796261429787,0.0,0.0,0.0,0.0,0.0,0.0,0.0,0.0,0.0,-0.941343784332,-4.17546367645,-0.622708916664,0.01,0.0,0.0,0.0,0.01,0.0,0.0,0.0,0.01,-33.0537376404,2.42476153374,-38.5053977966,0.01,0.0,0.0,0.0,0.01,0.0,0.0,0.0,0.01
1584954944939841719,2588,1584954944939581653,imu_link,-0.0726155638695,-0.194475263357,0.571032762527,0.794246792793,0.0,0.0,0.0,0.0,0.0,0.0,0.0,0.0,0.0,-0.242999091744,-2.22170686722,-0.0868784338236,0.01,0.0,0.0,0.0,0.01,0.0,0.0,0.0,0.01,-0.853837013245,12.8679714203,-10.2481174469,0.01,0.0,0.0,0.0,0.01,0.0,0.0,0.0,0.01
1584954944964868698,2589,1584954944964611092,imu_link,-0.0553102567792,-0.209583714604,0.573027729988,0.790351033211,0.0,0.0,0.0,0.0,0.0,0.0,0.0,0.0,0.0,0.678872048855,-1.48167777061,-0.170237004757,0.01,0.0,0.0,0.0,0.01,0.0,0.0,0.0,0.01,-5.85073518753,0.630343914032,-12.1948070526,0.01,0.0,0.0,0.0,0.01,0.0,0.0,0.0,0.01
1584954944989838014,2590,1584954944989595177,imu_link,-0.0375264473259,-0.213586494327,0.573867082596,0.789714574814,0.0,0.0,0.0,0.0,0.0,0.0,0.0,0.0,0.0,1.16704893112,-0.955243766308,-0.305026859045,0.01,0.0,0.0,0.0,0.01,0.0,0.0,0.0,0.01,-4.10745859146,4.69323348999,-10.5588083267,0.01,0.0,0.0,0.0,0.01,0.0,0.0,0.0,0.01
1584954945014909750,2591,1584954945014583126,imu_link,-0.0212444290519,-0.213874474168,0.573515415192,0.790497541428,0.0,0.0,0.0,0.0,0.0,0.0,0.0,0.0,0.0,0.823316693306,-0.642695009708,-0.259692460299,0.01,0.0,0.0,0.0,0.01,0.0,0.0,0.0,0.01,-3.44185805321,3.10784673691,-9.53964614868,0.01,0.0,0.0,0.0,0.01,0.0,0.0,0.0,0.01
1584954945039887985,2592,1584954945039565920,imu_link,-0.0117497108877,-0.215062096715,0.573389053345,0.79046523571,0.0,0.0,0.0,0.0,0.0,0.0,0.0,0.0,0.0,0.35212790966,-0.4048653543,-0.0957423374057,0.01,0.0,0.0,0.0,0.01,0.0,0.0,0.0,0.01,-3.91970205307,1.33115887642,-9.84569835663,0.01,0.0,0.0,0.0,0.01,0.0,0.0,0.0,0.01
1584954945065855728,2593,1584954945065525110,imu_link,-0.0075542316772,-0.216430902481,0.573608398438,0.78998363018,0.0,0.0,0.0,0.0,0.0,0.0,0.0,0.0,0.0,0.144534856081,-0.230770841241,-0.0316300541162,0.01,0.0,0.0,0.0,0.01,0.0,0.0,0.0,0.01,-3.36011052132,2.81560873985,-9.03153800964,0.01,0.0,0.0,0.0,0.01,0.0,0.0,0.0,0.01
1584954945090414063,2594,1584954945089807277,imu_link,-0.00454447185621,-0.217492058873,0.573322534561,0.789922714233,0.0,0.0,0.0,0.0,0.0,0.0,0.0,0.0,0.0,0.134786680341,-0.191703349352,-0.0876143202186,0.01,0.0,0.0,0.0,0.01,0.0,0.0,0.0,0.01,-3.38462996483,2.82932305336,-8.74136829376,0.01,0.0,0.0,0.0,0.01,0.0,0.0,0.0,0.01
1584954945115895850,2595,1584954945115548570,imu_link,-0.00134333281312,-0.217975869775,0.572693109512,0.790257871151,0.0,0.0,0.0,0.0,0.0,0.0,0.0,0.0,0.0,0.200109437108,-0.163848802447,-0.129046872258,0.01,0.0,0.0,0.0,0.01,0.0,0.0,0.0,0.01,-3.19885206223,2.69056272507,-8.54929637909,0.01,0.0,0.0,0.0,0.01,0.0,0.0,0.0,0.01
1584954945139837779,2596,1584954945139502756,imu_link,0.00270236679353,-0.217899784446,0.571739256382,0.790965616703,0.0,0.0,0.0,0.0,0.0,0.0,0.0,0.0,0.0,0.26667252183,-0.169530600309,-0.184207111597,0.01,0.0,0.0,0.0,0.01,0.0,0.0,0.0,0.01,-3.08645033836,2.31230545044,-8.60682487488,0.01,0.0,0.0,0.0,0.01,0.0,0.0,0.0,0.01
1584954945165652411,2597,1584954945165430119,imu_link,0.00669212639332,-0.217722445726,0.570448338985,0.791922271252,0.0,0.0,0.0,0.0,0.0,0.0,0.0,0.0,0.0,0.210391387343,-0.138720095158,-0.194550707936,0.01,0.0,0.0,0.0,0.01,0.0,0.0,0.0,0.01,-3.19288301468,2.18414783478,-8.50260829926,0.01,0.0,0.0,0.0,0.01,0.0,0.0,0.0,0.01
1584954945189647810,2598,1584954945189414497,imu_link,0.0100441006944,-0.217561870813,0.569182813168,0.792841017246,0.0,0.0,0.0,0.0,0.0,0.0,0.0,0.0,0.0,0.193382784724,-0.111598812044,-0.173250243068,0.01,0.0,0.0,0.0,0.01,0.0,0.0,0.0,0.01,-3.44760990143,2.12513589859,-8.65633392334,0.01,0.0,0.0,0.0,0.01,0.0,0.0,0.0,0.01
1584954945215588031,2599,1584954945215371452,imu_link,0.0131384944543,-0.216996997595,0.567930042744,0.793848335743,0.0,0.0,0.0,0.0,0.0,0.0,0.0,0.0,0.0,0.239322081208,-0.12435887754,-0.20904225111,0.01,0.0,0.0,0.0,0.01,0.0,0.0,0.0,0.01,-3.08800172806,2.41243577003,-8.73069095612,0.01,0.0,0.0,0.0,0.01,0.0,0.0,0.0,0.01
1584954945240011388,2600,1584954945239698128,imu_link,0.0185200702399,-0.217842370272,0.565785527229,0.795039892197,0.0,0.0,0.0,0.0,0.0,0.0,0.0,0.0,0.0,0.259499251842,-0.348326861858,-0.337474167347,0.01,0.0,0.0,0.0,0.01,0.0,0.0,0.0,0.01,-2.93768334389,2.15828466415,-8.65700149536,0.01,0.0,0.0,0.0,0.01,0.0,0.0,0.0,0.01
1584954945265375966,2601,1584954945264691181,imu_link,0.0239528995007,-0.219794511795,0.562824249268,0.796458184719,0.0,0.0,0.0,0.0,0.0,0.0,0.0,0.0,0.0,0.186844035983,-0.346323996782,-0.335354447365,0.01,0.0,0.0,0.0,0.01,0.0,0.0,0.0,0.01,-3.35436892509,2.01188874245,-8.45895290375,0.01,0.0,0.0,0.0,0.01,0.0,0.0,0.0,0.01
1584954945290368478,2602,1584954945289882689,imu_link,0.0299104899168,-0.22295601666,0.559504687786,0.797715783119,0.0,0.0,0.0,0.0,0.0,0.0,0.0,0.0,0.0,0.172724843025,-0.488418638706,-0.380304098129,0.01,0.0,0.0,0.0,0.01,0.0,0.0,0.0,0.01,-4.42957401276,1.92775225639,-8.86161613464,0.01,0.0,0.0,0.0,0.01,0.0,0.0,0.0,0.01
1584954945315502764,2603,1584954945314669082,imu_link,0.0356865823269,-0.22693786025,0.555929601192,0.79885417223,0.0,0.0,0.0,0.0,0.0,0.0,0.0,0.0,0.0,0.0944252237678,-0.561369419098,-0.379219889641,0.01,0.0,0.0,0.0,0.01,0.0,0.0,0.0,0.01,-3.53018093109,1.62042880058,-8.75872707367,0.01,0.0,0.0,0.0,0.01,0.0,0.0,0.0,0.01
1584954945340196554,2604,1584954945339606557,imu_link,0.0426536947489,-0.234211876988,0.551252841949,0.799653589725,0.0,0.0,0.0,0.0,0.0,0.0,0.0,0.0,0.0,0.0183517150581,-0.98821824789,-0.475026160479,0.01,0.0,0.0,0.0,0.01,0.0,0.0,0.0,0.01,-3.02040815353,1.70264363289,-8.83266544342,0.01,0.0,0.0,0.0,0.01,0.0,0.0,0.0,0.01
1584954945365939891,2605,1584954945365638949,imu_link,0.053674120456,-0.247225522995,0.545548975468,0.798983752728,0.0,0.0,0.0,0.0,0.0,0.0,0.0,0.0,0.0,0.0837918147445,-1.62447714806,-0.535066187382,0.01,0.0,0.0,0.0,0.01,0.0,0.0,0.0,0.01,-4.30345058441,1.65341639519,-8.33090591431,0.01,0.0,0.0,0.0,0.01,0.0,0.0,0.0,0.01
1584954945389486207,2606,1584954945389252343,imu_link,0.0726492553949,-0.266623198986,0.53822016716,0.796211779118,0.0,0.0,0.0,0.0,0.0,0.0,0.0,0.0,0.0,0.314076542854,-2.48995518684,-0.751189112663,0.01,0.0,0.0,0.0,0.01,0.0,0.0,0.0,0.01,-4.60038709641,2.15985488892,-8.92108154297,0.01,0.0,0.0,0.0,0.01,0.0,0.0,0.0,0.01
1584954945414451913,2607,1584954945414229949,imu_link,0.0992737039924,-0.295001745224,0.525644779205,0.791717290878,0.0,0.0,0.0,0.0,0.0,0.0,0.0,0.0,0.0,0.0704261064529,-3.58886957169,-1.09908223152,0.01,0.0,0.0,0.0,0.01,0.0,0.0,0.0,0.01,-3.1346321106,2.3873257637,-8.87234592438,0.01,0.0,0.0,0.0,0.01,0.0,0.0,0.0,0.01
1584954945439507572,2608,1584954945439229628,imu_link,0.134185597301,-0.341567158699,0.507853209972,0.779365897179,0.0,0.0,0.0,0.0,0.0,0.0,0.0,0.0,0.0,-0.00485005695373,-5.92478847504,-1.04618167877,0.01,0.0,0.0,0.0,0.01,0.0,0.0,0.0,0.01,-2.23891496658,0.225019663572,-8.8512840271,0.01,0.0,0.0,0.0,0.01,0.0,0.0,0.0,0.01
1584954945465428291,2609,1584954945465230848,imu_link,0.179082557559,-0.417046010494,0.47661280632,0.752889275551,0.0,0.0,0.0,0.0,0.0,0.0,0.0,0.0,0.0,-1.60827219486,-8.90132236481,-1.50822353363,0.01,0.0,0.0,0.0,0.01,0.0,0.0,0.0,0.01,-5.8221321106,1.83949041367,-18.0233802795,0.01,0.0,0.0,0.0,0.01,0.0,0.0,0.0,0.01
1584954945489636750,2610,1584954945489287173,imu_link,0.229636788368,-0.514430463314,0.429831266403,0.705601453781,0.0,0.0,0.0,0.0,0.0,0.0,0.0,0.0,0.0,-1.76401650906,-10.2735500336,-1.51778101921,0.01,0.0,0.0,0.0,0.01,0.0,0.0,0.0,0.01,-7.39805173874,6.10754203796,-24.5152320862,0.01,0.0,0.0,0.0,0.01,0.0,0.0,0.0,0.01
1584954945515625552,2611,1584954945515297876,imu_link,0.28226596117,-0.595434367657,0.374001562595,0.652615308762,0.0,0.0,0.0,0.0,0.0,0.0,0.0,0.0,0.0,-0.354816675186,-8.35115242004,-2.3336789608,0.01,0.0,0.0,0.0,0.01,0.0,0.0,0.0,0.01,-4.7490029335,12.3430690765,-31.749332428,0.01,0.0,0.0,0.0,0.01,0.0,0.0,0.0,0.01
1584954945539645923,2612,1584954945539283888,imu_link,0.334372937679,-0.617100775242,0.349258840084,0.620805680752,0.0,0.0,0.0,0.0,0.0,0.0,0.0,0.0,0.0,2.51797199249,-0.643429517746,-1.52637600899,0.01,0.0,0.0,0.0,0.01,0.0,0.0,0.0,0.01,-16.3538742065,13.2109718323,-42.7704620361,0.01,0.0,0.0,0.0,0.01,0.0,0.0,0.0,0.01
1584954945565611504,2613,1584954945565276234,imu_link,0.339976429939,-0.595475554466,0.367449104786,0.628336012363,0.0,0.0,0.0,0.0,0.0,0.0,0.0,0.0,0.0,1.6928166151,2.01186156273,0.369328290224,0.01,0.0,0.0,0.0,0.01,0.0,0.0,0.0,0.01,7.52978801727,10.7026309967,-6.72947978973,0.01,0.0,0.0,0.0,0.01,0.0,0.0,0.0,0.01
1584954945589560784,2614,1584954945589229514,imu_link,0.346660286188,-0.572743833065,0.394596099854,0.629352927208,0.0,0.0,0.0,0.0,0.0,0.0,0.0,0.0,0.0,2.24692797661,1.42632210255,0.590015888214,0.01,0.0,0.0,0.0,0.01,0.0,0.0,0.0,0.01,5.4955997467,4.82738399506,-2.56221008301,0.01,0.0,0.0,0.0,0.01,0.0,0.0,0.0,0.01
1584954945615502596,2615,1584954945615209726,imu_link,0.342698663473,-0.553206264973,0.422669947147,0.630769908428,0.0,0.0,0.0,0.0,0.0,0.0,0.0,0.0,0.0,1.33254122734,2.4348089695,1.33164870739,0.01,0.0,0.0,0.0,0.01,0.0,0.0,0.0,0.01,0.434696048498,6.85896778107,-9.16798973083,0.01,0.0,0.0,0.0,0.01,0.0,0.0,0.0,0.01
1584954945639484768,2616,1584954945639200240,imu_link,0.324925899506,-0.525870084763,0.459881663322,0.637489378452,0.0,0.0,0.0,0.0,0.0,0.0,0.0,0.0,0.0,1.72312510014,3.84751009941,1.89261937141,0.01,0.0,0.0,0.0,0.01,0.0,0.0,0.0,0.01,-2.69305467606,8.15310382843,-9.95978069305,0.01,0.0,0.0,0.0,0.01,0.0,0.0,0.0,0.01
1584954945665565817,2617,1584954945665202966,imu_link,0.299114942551,-0.488298147917,0.504810035229,0.645958244801,0.0,0.0,0.0,0.0,0.0,0.0,0.0,0.0,0.0,1.58414840698,4.69365978241,2.17866444588,0.01,0.0,0.0,0.0,0.01,0.0,0.0,0.0,0.01,-4.16540050507,4.15125703812,-6.27098083496,0.01,0.0,0.0,0.0,0.01,0.0,0.0,0.0,0.01
1584954945689429331,2618,1584954945689122890,imu_link,0.262815088034,-0.447862744331,0.546744763851,0.656823694706,0.0,0.0,0.0,0.0,0.0,0.0,0.0,0.0,0.0,0.896869003773,5.20324897766,2.1208524704,0.01,0.0,0.0,0.0,0.01,0.0,0.0,0.0,0.01,-6.1809835434,2.65786004066,-7.57754898071,0.01,0.0,0.0,0.0,0.01,0.0,0.0,0.0,0.01
1584954945715479596,2619,1584954945715161266,imu_link,0.219024479389,-0.402686804533,0.583197057247,0.670636236668,0.0,0.0,0.0,0.0,0.0,0.0,0.0,0.0,0.0,0.587037503719,5.76303100586,1.78433394432,0.01,0.0,0.0,0.0,0.01,0.0,0.0,0.0,0.01,-8.63950920105,2.681599617,-9.70703887939,0.01,0.0,0.0,0.0,0.01,0.0,0.0,0.0,0.01
1584954945740453969,2620,1584954945740155010,imu_link,0.17048881948,-0.352683633566,0.613252520561,0.685907542706,0.0,0.0,0.0,0.0,0.0,0.0,0.0,0.0,0.0,0.329198628664,6.08312797546,1.45866179466,0.01,0.0,0.0,0.0,0.01,0.0,0.0,0.0,0.01,-9.44366931915,2.99440264702,-9.94129753113,0.01,0.0,0.0,0.0,0.01,0.0,0.0,0.0,0.01
1584954945765424872,2621,1584954945765133753,imu_link,0.118555285037,-0.299727469683,0.636837661266,0.700389862061,0.0,0.0,0.0,0.0,0.0,0.0,0.0,0.0,0.0,0.160443812609,6.27361965179,1.28014373779,0.01,0.0,0.0,0.0,0.01,0.0,0.0,0.0,0.01,-10.685338974,4.87900304794,-12.5583438873,0.01,0.0,0.0,0.0,0.01,0.0,0.0,0.0,0.01
1584954945790405266,2622,1584954945790065272,imu_link,0.0629625916481,-0.244370982051,0.655626773834,0.711668550968,0.0,0.0,0.0,0.0,0.0,0.0,0.0,0.0,0.0,-0.0384198501706,6.41899871826,1.25760805607,0.01,0.0,0.0,0.0,0.01,0.0,0.0,0.0,0.01,-12.8938560486,5.65583372116,-14.6483831406,0.01,0.0,0.0,0.0,0.01,0.0,0.0,0.0,0.01
1584954945816378347,2623,1584954945815076990,imu_link,0.0031722728163,-0.189934700727,0.668299078941,0.719229638577,0.0,0.0,0.0,0.0,0.0,0.0,0.0,0.0,0.0,-0.586491286755,6.55445384979,1.24371707439,0.01,0.0,0.0,0.0,0.01,0.0,0.0,0.0,0.01,-19.2411403656,6.37314891815,-18.1010036469,0.01,0.0,0.0,0.0,0.01,0.0,0.0,0.0,0.01
1584954945840303093,2624,1584954945840019757,imu_link,-0.0648975223303,-0.136699736118,0.674400448799,0.722693264484,0.0,0.0,0.0,0.0,0.0,0.0,0.0,0.0,0.0,-1.184497118,6.80342960358,1.0030503273,0.01,0.0,0.0,0.0,0.01,0.0,0.0,0.0,0.01,-26.3397655487,1.84147763252,-13.6201610565,0.01,0.0,0.0,0.0,0.01,0.0,0.0,0.0,0.01
1584954945865255280,2625,1584954945865017623,imu_link,-0.131441727281,-0.092399969697,0.66882956028,0.725845992565,0.0,0.0,0.0,0.0,0.0,0.0,0.0,0.0,0.0,-1.66259169579,5.62633228302,0.0939152464271,0.01,0.0,0.0,0.0,0.01,0.0,0.0,0.0,0.01,-27.9700183868,-6.12895345688,-3.26077032089,0.01,0.0,0.0,0.0,0.01,0.0,0.0,0.0,0.01
1584954945890227815,2626,1584954945889979916,imu_link,-0.178448036313,-0.0661754608154,0.653281569481,0.732803046703,0.0,0.0,0.0,0.0,0.0,0.0,0.0,0.0,0.0,-0.893878698349,3.1884739399,-1.24098408222,0.01,0.0,0.0,0.0,0.01,0.0,0.0,0.0,0.01,-35.743183136,-3.74190187454,10.8015594482,0.01,0.0,0.0,0.0,0.01,0.0,0.0,0.0,0.01
1584954945915352199,2627,1584954945915036938,imu_link,-0.189474120736,-0.0680433362722,0.632599532604,0.747855246067,0.0,0.0,0.0,0.0,0.0,0.0,0.0,0.0,0.0,-0.319482892752,-1.33747255802,-2.4186360836,0.01,0.0,0.0,0.0,0.01,0.0,0.0,0.0,0.01,-27.0978012085,5.22660779953,34.1334609985,0.01,0.0,0.0,0.0,0.01,0.0,0.0,0.0,0.01
1584954945940289550,2628,1584954945940003887,imu_link,-0.146426126361,-0.0946142077446,0.617775976658,0.766785681248,0.0,0.0,0.0,0.0,0.0,0.0,0.0,0.0,0.0,0.510255336761,-2.36366271973,-1.59227716923,0.01,0.0,0.0,0.0,0.01,0.0,0.0,0.0,0.01,0.677672445774,2.56832456589,-32.4292259216,0.01,0.0,0.0,0.0,0.01,0.0,0.0,0.0,0.01
1584954945965292026,2629,1584954945965018237,imu_link,-0.11046308279,-0.125213637948,0.610519587994,0.774199724197,0.0,0.0,0.0,0.0,0.0,0.0,0.0,0.0,0.0,0.309501409531,-5.50969028473,-1.18628716469,0.01,0.0,0.0,0.0,0.01,0.0,0.0,0.0,0.01,-2.46503520012,-1.31530642509,8.66994190216,0.01,0.0,0.0,0.0,0.01,0.0,0.0,0.0,0.01
1584954945990541368,2630,1584954945990195793,imu_link,-0.0809040442109,-0.163303598762,0.611367225647,0.770075678825,0.0,0.0,0.0,0.0,0.0,0.0,0.0,0.0,0.0,0.163973629475,-2.75021791458,-0.579033076763,0.01,0.0,0.0,0.0,0.01,0.0,0.0,0.0,0.01,-14.9825143814,-8.80599212646,-22.0913963318,0.01,0.0,0.0,0.0,0.01,0.0,0.0,0.0,0.01
1584954946015619657,2631,1584954946015175949,imu_link,-0.0653513222933,-0.188103988767,0.610699474812,0.766415119171,0.0,0.0,0.0,0.0,0.0,0.0,0.0,0.0,0.0,-0.12225664407,-2.05496525764,0.0463061109185,0.01,0.0,0.0,0.0,0.01,0.0,0.0,0.0,0.01,-4.48323392868,12.8213043213,-11.1645393372,0.01,0.0,0.0,0.0,0.01,0.0,0.0,0.0,0.01
