%time,field.header.seq,field.header.stamp,field.header.frame_id,field.orientation.x,field.orientation.y,field.orientation.z,field.orientation.w,field.orientation_covariance0,field.orientation_covariance1,field.orientation_covariance2,field.orientation_covariance3,field.orientation_covariance4,field.orientation_covariance5,field.orientation_covariance6,field.orientation_covariance7,field.orientation_covariance8,field.angular_velocity.x,field.angular_velocity.y,field.angular_velocity.z,field.angular_velocity_covariance0,field.angular_velocity_covariance1,field.angular_velocity_covariance2,field.angular_velocity_covariance3,field.angular_velocity_covariance4,field.angular_velocity_covariance5,field.angular_velocity_covariance6,field.angular_velocity_covariance7,field.angular_velocity_covariance8,field.linear_acceleration.x,field.linear_acceleration.y,field.linear_acceleration.z,field.linear_acceleration_covariance0,field.linear_acceleration_covariance1,field.linear_acceleration_covariance2,field.linear_acceleration_covariance3,field.linear_acceleration_covariance4,field.linear_acceleration_covariance5,field.linear_acceleration_covariance6,field.linear_acceleration_covariance7,field.linear_acceleration_covariance8
1585291168167836655,46027,1585291168167104867,foot_imu_link,0.233139485121,0.163118258119,0.507663786411,-0.813213407993,0.0,0.0,0.0,0.0,0.0,0.0,0.0,0.0,0.0,-0.010922273621,0.00680610351264,-0.000353916548193,0.01,0.0,0.0,0.0,0.01,0.0,0.0,0.0,0.01,-4.89952039719,2.01003193855,-8.06471061707,0.01,0.0,0.0,0.0,0.01,0.0,0.0,0.0,0.01
1585291168168627318,46028,1585291168168318911,foot_imu_link,0.233152329922,0.163089737296,0.507673382759,-0.813209414482,0.0,0.0,0.0,0.0,0.0,0.0,0.0,0.0,0.0,-0.0113438116387,0.00745688704774,-0.000130185857415,0.01,0.0,0.0,0.0,0.01,0.0,0.0,0.0,0.01,-4.79736995697,2.06426548958,-8.0311794281,0.01,0.0,0.0,0.0,0.01,0.0,0.0,0.0,0.01
1585291168181616599,46029,1585291168178622710,foot_imu_link,0.233172535896,0.163058876991,0.507686913013,-0.813201367855,0.0,0.0,0.0,0.0,0.0,0.0,0.0,0.0,0.0,-0.012611463666,0.00612503429875,-0.00133000384085,0.01,0.0,0.0,0.0,0.01,0.0,0.0,0.0,0.01,-4.76601552963,2.09769749641,-8.02171897888,0.01,0.0,0.0,0.0,0.01,0.0,0.0,0.0,0.01
1585291168183585062,46030,1585291168182164900,foot_imu_link,0.233188673854,0.163029849529,0.507698655128,-0.813195228577,0.0,0.0,0.0,0.0,0.0,0.0,0.0,0.0,0.0,-0.0114855598658,0.00588162615895,-0.000418364536017,0.01,0.0,0.0,0.0,0.01,0.0,0.0,0.0,0.01,-4.80541324615,2.02523684502,-8.01550102234,0.01,0.0,0.0,0.0,0.01,0.0,0.0,0.0,0.01
1585291168183645281,46031,1585291168182956543,foot_imu_link,0.233202069998,0.163002595305,0.507708191872,-0.813190877438,0.0,0.0,0.0,0.0,0.0,0.0,0.0,0.0,0.0,-0.0116567350924,0.00727784447372,-0.000372294336557,0.01,0.0,0.0,0.0,0.01,0.0,0.0,0.0,0.01,-4.79173278809,2.03587031364,-7.99537944794,0.01,0.0,0.0,0.0,0.01,0.0,0.0,0.0,0.01
1585291168217128319,46032,1585291168213396170,foot_imu_link,0.233269050717,0.162855133414,0.507759153843,-0.813169419765,0.0,0.0,0.0,0.0,0.0,0.0,0.0,0.0,0.0,-0.0113179851323,0.00957196392119,0.000523936469108,0.01,0.0,0.0,0.0,0.01,0.0,0.0,0.0,0.01,-4.78113985062,2.05501079559,-8.00238800049,0.01,0.0,0.0,0.0,0.01,0.0,0.0,0.0,0.01
1585291168228507731,46033,1585291168227877563,foot_imu_link,0.233298674226,0.162757262588,0.507776021957,-0.813169836998,0.0,0.0,0.0,0.0,0.0,0.0,0.0,0.0,0.0,-0.00987516436726,0.00803121645004,0.0014317096211,0.01,0.0,0.0,0.0,0.01,0.0,0.0,0.0,0.01,-4.79064941406,2.03031349182,-8.00747871399,0.01,0.0,0.0,0.0,0.01,0.0,0.0,0.0,0.01
1585291168245157971,46034,1585291168244660719,foot_imu_link,0.233304053545,0.162681058049,0.507780313492,-0.813180983067,0.0,0.0,0.0,0.0,0.0,0.0,0.0,0.0,0.0,-0.00632549449801,0.00624156882986,0.00283485557884,0.01,0.0,0.0,0.0,0.01,0.0,0.0,0.0,0.01,-4.73975849152,2.04685091972,-8.01449584961,0.01,0.0,0.0,0.0,0.01,0.0,0.0,0.0,0.01
1585291168260708969,46035,1585291168260208440,foot_imu_link,0.233306825161,0.162583619356,0.507799983025,-0.813187420368,0.0,0.0,0.0,0.0,0.0,0.0,0.0,0.0,0.0,-0.00458839070052,0.00516823399812,0.00130279455334,0.01,0.0,0.0,0.0,0.01,0.0,0.0,0.0,0.01,-4.90081453323,2.0382797718,-8.068567276,0.01,0.0,0.0,0.0,0.01,0.0,0.0,0.0,0.01
1585291168276186717,46036,1585291168275531757,foot_imu_link,0.233313009143,0.162488713861,0.507817447186,-0.813193678856,0.0,0.0,0.0,0.0,0.0,0.0,0.0,0.0,0.0,-0.00686172489077,0.00718702189624,0.00257732579485,0.01,0.0,0.0,0.0,0.01,0.0,0.0,0.0,0.01,-4.8795838356,2.02477359772,-8.06180286407,0.01,0.0,0.0,0.0,0.01,0.0,0.0,0.0,0.01
1585291168291429779,46037,1585291168290920695,foot_imu_link,0.233331203461,0.162402242422,0.507829248905,-0.813198387623,0.0,0.0,0.0,0.0,0.0,0.0,0.0,0.0,0.0,-0.00585114955902,0.00683462666348,0.00328997056931,0.01,0.0,0.0,0.0,0.01,0.0,0.0,0.0,0.01,-4.79887247086,2.05388212204,-7.98701238632,0.01,0.0,0.0,0.0,0.01,0.0,0.0,0.0,0.01
1585291168312995815,46038,1585291168312334917,foot_imu_link,0.233340397477,0.162317946553,0.507827103138,-0.81321388483,0.0,0.0,0.0,0.0,0.0,0.0,0.0,0.0,0.0,-0.00351926591247,0.0108054885641,0.00311122089624,0.01,0.0,0.0,0.0,0.01,0.0,0.0,0.0,0.01,-4.82612085342,2.04069328308,-7.98491191864,0.01,0.0,0.0,0.0,0.01,0.0,0.0,0.0,0.01
1585291168328454477,46039,1585291168327706654,foot_imu_link,0.233343243599,0.162269204855,0.507831513882,-0.813220024109,0.0,0.0,0.0,0.0,0.0,0.0,0.0,0.0,0.0,-0.00115137919784,0.00556080462411,-6.00889325142e-06,0.01,0.0,0.0,0.0,0.01,0.0,0.0,0.0,0.01,-4.8561797142,2.09232115746,-8.00832271576,0.01,0.0,0.0,0.0,0.01,0.0,0.0,0.0,0.01
1585291168345603885,46040,1585291168344665511,foot_imu_link,0.233330696821,0.162234038115,0.507847309113,-0.813220798969,0.0,0.0,0.0,0.0,0.0,0.0,0.0,0.0,0.0,0.000422973185778,0.00224616308697,-0.00026049464941,0.01,0.0,0.0,0.0,0.01,0.0,0.0,0.0,0.01,-4.77516126633,2.05321073532,-8.00616931915,0.01,0.0,0.0,0.0,0.01,0.0,0.0,0.0,0.01
1585291168376678441,46041,1585291168375517758,foot_imu_link,0.233273655176,0.162217900157,0.507843196392,-0.813242852688,0.0,0.0,0.0,0.0,0.0,0.0,0.0,0.0,0.0,0.00283923279494,0.00291364081204,-0.00169303407893,0.01,0.0,0.0,0.0,0.01,0.0,0.0,0.0,0.01,-4.77662801743,2.05993151665,-8.03499507904,0.01,0.0,0.0,0.0,0.01,0.0,0.0,0.0,0.01
1585291168390982837,46042,1585291168390437306,foot_imu_link,0.233243465424,0.162231579423,0.50785702467,-0.813240230083,0.0,0.0,0.0,0.0,0.0,0.0,0.0,0.0,0.0,0.00426054466516,-0.000790970632806,-0.00326892733574,0.01,0.0,0.0,0.0,0.01,0.0,0.0,0.0,0.01,-4.7814912796,2.06742668152,-8.01222419739,0.01,0.0,0.0,0.0,0.01,0.0,0.0,0.0,0.01
1585291168428858047,46043,1585291168427499074,foot_imu_link,0.233209833503,0.162215158343,0.507877230644,-0.813240587711,0.0,0.0,0.0,0.0,0.0,0.0,0.0,0.0,0.0,-0.00158814154565,1.71532592503e-05,-9.53869894147e-05,0.01,0.0,0.0,0.0,0.01,0.0,0.0,0.0,0.01,-4.76192951202,2.07106494904,-8.0025844574,0.01,0.0,0.0,0.0,0.01,0.0,0.0,0.0,0.01
1585291168443147017,46044,1585291168442397383,foot_imu_link,0.233218550682,0.162192225456,0.507868170738,-0.813248276711,0.0,0.0,0.0,0.0,0.0,0.0,0.0,0.0,0.0,-0.00287889782339,0.00253211613744,0.00216794665903,0.01,0.0,0.0,0.0,0.01,0.0,0.0,0.0,0.01,-4.78636455536,2.07718873024,-8.03858947754,0.01,0.0,0.0,0.0,0.01,0.0,0.0,0.0,0.01
1585291168459723744,46045,1585291168459136327,foot_imu_link,0.233232200146,0.162160366774,0.507868528366,-0.813250541687,0.0,0.0,0.0,0.0,0.0,0.0,0.0,0.0,0.0,-0.00278220977634,0.00227301148698,0.00250146910548,0.01,0.0,0.0,0.0,0.01,0.0,0.0,0.0,0.01,-4.75901937485,2.05087471008,-8.03916549683,0.01,0.0,0.0,0.0,0.01,0.0,0.0,0.0,0.01
1585291168475866648,46046,1585291168475307031,foot_imu_link,0.233239382505,0.162113621831,0.507879555225,-0.81325083971,0.0,0.0,0.0,0.0,0.0,0.0,0.0,0.0,0.0,-0.000931458547711,0.00442749448121,0.00012003723532,0.01,0.0,0.0,0.0,0.01,0.0,0.0,0.0,0.01,-4.75624275208,2.05036783218,-8.00735282898,0.01,0.0,0.0,0.0,0.01,0.0,0.0,0.0,0.01
1585291168490775428,46047,1585291168490111959,foot_imu_link,0.233256325126,0.16205856204,0.507895052433,-0.813247263432,0.0,0.0,0.0,0.0,0.0,0.0,0.0,0.0,0.0,-0.00702612008899,0.00635167304426,0.00210225675255,0.01,0.0,0.0,0.0,0.01,0.0,0.0,0.0,0.01,-4.83237075806,2.04823613167,-8.03364944458,0.01,0.0,0.0,0.0,0.01,0.0,0.0,0.0,0.01
1585291168506097290,46048,1585291168505519337,foot_imu_link,0.233269736171,0.16199311614,0.507918655872,-0.8132417202,0.0,0.0,0.0,0.0,0.0,0.0,0.0,0.0,0.0,-0.0065994001925,0.00611313665286,0.00115638319403,0.01,0.0,0.0,0.0,0.01,0.0,0.0,0.0,0.01,-4.76399755478,2.05149245262,-8.02982997894,0.01,0.0,0.0,0.0,0.01,0.0,0.0,0.0,0.01
1585291168527887534,46049,1585291168527346787,foot_imu_link,0.233272865415,0.161934792995,0.507935464382,-0.813241958618,0.0,0.0,0.0,0.0,0.0,0.0,0.0,0.0,0.0,-0.00183377414942,0.00382543634623,0.00177676510066,0.01,0.0,0.0,0.0,0.01,0.0,0.0,0.0,0.01,-4.79094219208,2.0387866497,-7.97671413422,0.01,0.0,0.0,0.0,0.01,0.0,0.0,0.0,0.01
1585291168542865957,46050,1585291168542293335,foot_imu_link,0.233265995979,0.161925122142,0.507944226265,-0.813240408897,0.0,0.0,0.0,0.0,0.0,0.0,0.0,0.0,0.0,0.00256917253137,0.000429592793807,-0.000245344359428,0.01,0.0,0.0,0.0,0.01,0.0,0.0,0.0,0.01,-4.77288150787,2.06128787994,-8.00590419769,0.01,0.0,0.0,0.0,0.01,0.0,0.0,0.0,0.01
1585291168558353423,46051,1585291168557804866,foot_imu_link,0.233246251941,0.16193857789,0.507943332195,-0.813243985176,0.0,0.0,0.0,0.0,0.0,0.0,0.0,0.0,0.0,0.0039682732895,-0.000850766373333,-0.00134245795198,0.01,0.0,0.0,0.0,0.01,0.0,0.0,0.0,0.01,-4.77463817596,2.02917766571,-8.02101135254,0.01,0.0,0.0,0.0,0.01,0.0,0.0,0.0,0.01
1585291168566832039,46052,1585291168566118254,foot_imu_link,0.233230665326,0.161956161261,0.507938981056,-0.813247621059,0.0,0.0,0.0,0.0,0.0,0.0,0.0,0.0,0.0,0.0035107312724,-0.00214476464316,0.000195455271751,0.01,0.0,0.0,0.0,0.01,0.0,0.0,0.0,0.01,-4.76716279984,2.05232739449,-7.98855781555,0.01,0.0,0.0,0.0,0.01,0.0,0.0,0.0,0.01
1585291168590537463,46053,1585291168589974794,foot_imu_link,0.233179882169,0.16201646626,0.507937908173,-0.813250780106,0.0,0.0,0.0,0.0,0.0,0.0,0.0,0.0,0.0,0.0067663025111,-0.00373921962455,-0.00340512231924,0.01,0.0,0.0,0.0,0.01,0.0,0.0,0.0,0.01,-4.75518608093,2.04763960838,-7.99784326553,0.01,0.0,0.0,0.0,0.01,0.0,0.0,0.0,0.01
1585291168605695270,46054,1585291168605158280,foot_imu_link,0.233138263226,0.162072077394,0.507937192917,-0.813252151012,0.0,0.0,0.0,0.0,0.0,0.0,0.0,0.0,0.0,0.00894107297063,-0.00367500586435,-0.00254997122101,0.01,0.0,0.0,0.0,0.01,0.0,0.0,0.0,0.01,-4.78327941895,2.0573952198,-8.00489044189,0.01,0.0,0.0,0.0,0.01,0.0,0.0,0.0,0.01
1585291168643163548,46055,1585291168642111648,foot_imu_link,0.233014702797,0.162242844701,0.507945716381,-0.813248217106,0.0,0.0,0.0,0.0,0.0,0.0,0.0,0.0,0.0,0.0121620018035,-0.00710340077057,-0.004329117015,0.01,0.0,0.0,0.0,0.01,0.0,0.0,0.0,0.01,-4.77110910416,2.02929520607,-8.021692276,0.01,0.0,0.0,0.0,0.01,0.0,0.0,0.0,0.01
1585291168659110027,46056,1585291168657478512,foot_imu_link,0.232951536775,0.162349253893,0.507939636707,-0.813248872757,0.0,0.0,0.0,0.0,0.0,0.0,0.0,0.0,0.0,0.0145380226895,-0.00737981311977,-0.00344269862399,0.01,0.0,0.0,0.0,0.01,0.0,0.0,0.0,0.01,-4.79054498672,2.03498578072,-8.0132188797,0.01,0.0,0.0,0.0,0.01,0.0,0.0,0.0,0.01
1585291168675768010,46057,1585291168674016746,foot_imu_link,0.232895895839,0.162450432777,0.507934272289,-0.813247919083,0.0,0.0,0.0,0.0,0.0,0.0,0.0,0.0,0.0,0.0130480146036,-0.00919872988015,-0.00371139729396,0.01,0.0,0.0,0.0,0.01,0.0,0.0,0.0,0.01,-4.7472858429,2.07390713692,-8.01839351654,0.01,0.0,0.0,0.0,0.01,0.0,0.0,0.0,0.01
1585291168690377879,46058,1585291168689822155,foot_imu_link,0.232815697789,0.162589043379,0.507931888103,-0.813244640827,0.0,0.0,0.0,0.0,0.0,0.0,0.0,0.0,0.0,0.0122803691775,-0.00619704136625,-0.00539590464905,0.01,0.0,0.0,0.0,0.01,0.0,0.0,0.0,0.01,-4.80218458176,2.08050632477,-7.99069309235,0.01,0.0,0.0,0.0,0.01,0.0,0.0,0.0,0.01
1585291168705710659,46059,1585291168705170079,foot_imu_link,0.232757925987,0.162680238485,0.507948756218,-0.81323248148,0.0,0.0,0.0,0.0,0.0,0.0,0.0,0.0,0.0,0.0101318070665,-0.00439033610746,-0.00730692222714,0.01,0.0,0.0,0.0,0.01,0.0,0.0,0.0,0.01,-4.80052423477,2.03831672668,-8.02153778076,0.01,0.0,0.0,0.0,0.01,0.0,0.0,0.0,0.01
1585291168720700971,46060,1585291168720142311,foot_imu_link,0.232705250382,0.162758305669,0.507962286472,-0.813223421574,0.0,0.0,0.0,0.0,0.0,0.0,0.0,0.0,0.0,0.00792326126248,-0.00383714376949,-0.00515119777992,0.01,0.0,0.0,0.0,0.01,0.0,0.0,0.0,0.01,-4.81955242157,2.01454734802,-8.04322910309,0.01,0.0,0.0,0.0,0.01,0.0,0.0,0.0,0.01
1585291168743810928,46061,1585291168741904930,foot_imu_link,0.232657104731,0.162846207619,0.507964670658,-0.813218057156,0.0,0.0,0.0,0.0,0.0,0.0,0.0,0.0,0.0,0.00515109766275,-0.00544204842299,-0.00202003587037,0.01,0.0,0.0,0.0,0.01,0.0,0.0,0.0,0.01,-4.7843708992,2.03601813316,-8.00656032562,0.01,0.0,0.0,0.0,0.01,0.0,0.0,0.0,0.01
1585291168758852150,46062,1585291168757300241,foot_imu_link,0.232636764646,0.162901327014,0.507961571217,-0.813214838505,0.0,0.0,0.0,0.0,0.0,0.0,0.0,0.0,0.0,0.00521827954799,-0.00624097837135,-0.00236927857623,0.01,0.0,0.0,0.0,0.01,0.0,0.0,0.0,0.01,-4.79752206802,2.01222324371,-8.03967094421,0.01,0.0,0.0,0.0,0.01,0.0,0.0,0.0,0.01
1585291168773240856,46063,1585291168772315898,foot_imu_link,0.232616633177,0.162955328822,0.507960677147,-0.813210368156,0.0,0.0,0.0,0.0,0.0,0.0,0.0,0.0,0.0,0.00496560521424,-0.00301865604706,-0.000952920177951,0.01,0.0,0.0,0.0,0.01,0.0,0.0,0.0,0.01,-4.80930042267,2.00616574287,-8.03105449677,0.01,0.0,0.0,0.0,0.01,0.0,0.0,0.0,0.01
1585291168789814315,46064,1585291168788918288,foot_imu_link,0.23259370029,0.162988454103,0.50796186924,-0.813209533691,0.0,0.0,0.0,0.0,0.0,0.0,0.0,0.0,0.0,0.00184962619096,-0.00159567350056,-0.00141642964445,0.01,0.0,0.0,0.0,0.01,0.0,0.0,0.0,0.01,-4.8033490181,2.03633451462,-8.03695678711,0.01,0.0,0.0,0.0,0.01,0.0,0.0,0.0,0.01
1585291168805514826,46065,1585291168805019335,foot_imu_link,0.232592090964,0.162997528911,0.507974982262,-0.813199996948,0.0,0.0,0.0,0.0,0.0,0.0,0.0,0.0,0.0,-0.000443127006292,0.000192277118913,-0.00227187247947,0.01,0.0,0.0,0.0,0.01,0.0,0.0,0.0,0.01,-4.83398580551,2.04691553116,-8.0148897171,0.01,0.0,0.0,0.0,0.01,0.0,0.0,0.0,0.01
1585291168820410084,46066,1585291168819888303,foot_imu_link,0.232594639063,0.162989407778,0.50799036026,-0.81319129467,0.0,0.0,0.0,0.0,0.0,0.0,0.0,0.0,0.0,-0.00170192867517,-0.000732476357371,-0.00303449318744,0.01,0.0,0.0,0.0,0.01,0.0,0.0,0.0,0.01,-4.77792072296,2.02943944931,-8.0380115509,0.01,0.0,0.0,0.0,0.01,0.0,0.0,0.0,0.01
1585291168858566957,46067,1585291168857008757,foot_imu_link,0.232595965266,0.162981420755,0.508043289185,-0.81315946579,0.0,0.0,0.0,0.0,0.0,0.0,0.0,0.0,0.0,-8.88695940375e-05,-3.06192232529e-05,-0.00239528971724,0.01,0.0,0.0,0.0,0.01,0.0,0.0,0.0,0.01,-4.78306388855,2.03302764893,-8.02159309387,0.01,0.0,0.0,0.0,0.01,0.0,0.0,0.0,0.01
1585291168872949495,46068,1585291168872031836,foot_imu_link,0.232599943876,0.162972077727,0.508071422577,-0.813142597675,0.0,0.0,0.0,0.0,0.0,0.0,0.0,0.0,0.0,-0.00230258703232,0.00258231721818,-0.00313606252894,0.01,0.0,0.0,0.0,0.01,0.0,0.0,0.0,0.01,-4.80013513565,2.05416321754,-7.9998717308,0.01,0.0,0.0,0.0,0.01,0.0,0.0,0.0,0.01
1585291168890699669,46069,1585291168888691003,foot_imu_link,0.232627406716,0.162958353758,0.508091151714,-0.813125193119,0.0,0.0,0.0,0.0,0.0,0.0,0.0,0.0,0.0,-0.00496629346162,0.0011318475008,-0.00280566466972,0.01,0.0,0.0,0.0,0.01,0.0,0.0,0.0,0.01,-4.81351661682,2.01270437241,-8.00827884674,0.01,0.0,0.0,0.0,0.01,0.0,0.0,0.0,0.01
1585291168906851025,46070,1585291168904851692,foot_imu_link,0.232663035393,0.162888169289,0.508119225502,-0.813111424446,0.0,0.0,0.0,0.0,0.0,0.0,0.0,0.0,0.0,-0.00619651470333,0.00495453039184,-5.41843473911e-06,0.01,0.0,0.0,0.0,0.01,0.0,0.0,0.0,0.01,-4.79609012604,2.01407122612,-8.03527832031,0.01,0.0,0.0,0.0,0.01,0.0,0.0,0.0,0.01
1585291168920545503,46071,1585291168919818939,foot_imu_link,0.232678622007,0.162853136659,0.508136987686,-0.813102900982,0.0,0.0,0.0,0.0,0.0,0.0,0.0,0.0,0.0,-0.00421704910696,0.00294314464554,-0.000452899839729,0.01,0.0,0.0,0.0,0.01,0.0,0.0,0.0,0.01,-4.78184509277,2.01912927628,-7.99765729904,0.01,0.0,0.0,0.0,0.01,0.0,0.0,0.0,0.01
1585291168936893677,46072,1585291168935425271,foot_imu_link,0.232689604163,0.162827655673,0.508154213428,-0.813094139099,0.0,0.0,0.0,0.0,0.0,0.0,0.0,0.0,0.0,-0.00562487915158,0.00259295850992,0.00218107085675,0.01,0.0,0.0,0.0,0.01,0.0,0.0,0.0,0.01,-4.83976078033,2.04074263573,-8.05431556702,0.01,0.0,0.0,0.0,0.01,0.0,0.0,0.0,0.01
1585291168957327682,46073,1585291168956726243,foot_imu_link,0.232773885131,0.162706449628,0.508168339729,-0.813085436821,0.0,0.0,0.0,0.0,0.0,0.0,0.0,0.0,0.0,-0.0185849927366,0.0110097816214,0.00418228888884,0.01,0.0,0.0,0.0,0.01,0.0,0.0,0.0,0.01,-4.83502101898,2.03771829605,-8.04804229736,0.01,0.0,0.0,0.0,0.01,0.0,0.0,0.0,0.01
1585291168973380793,46074,1585291168971781256,foot_imu_link,0.232860848308,0.16254670918,0.508185565472,-0.813081741333,0.0,0.0,0.0,0.0,0.0,0.0,0.0,0.0,0.0,-0.0200538411736,0.010500581935,0.00319404993206,0.01,0.0,0.0,0.0,0.01,0.0,0.0,0.0,0.01,-4.74691677094,2.02160167694,-7.98102521896,0.01,0.0,0.0,0.0,0.01,0.0,0.0,0.0,0.01
1585291168988548499,46075,1585291168987305826,foot_imu_link,0.232930257916,0.162400782108,0.508212506771,-0.813074171543,0.0,0.0,0.0,0.0,0.0,0.0,0.0,0.0,0.0,-0.0162852220237,0.00823510345072,0.00551265478134,0.01,0.0,0.0,0.0,0.01,0.0,0.0,0.0,0.01,-4.77287578583,2.01818370819,-7.98889446259,0.01,0.0,0.0,0.0,0.01,0.0,0.0,0.0,0.01
1585291169004735720,46076,1585291169003848608,foot_imu_link,0.232995316386,0.162293732166,0.508212983608,-0.813076555729,0.0,0.0,0.0,0.0,0.0,0.0,0.0,0.0,0.0,-0.0136372931302,0.00725891906768,0.00384978251532,0.01,0.0,0.0,0.0,0.01,0.0,0.0,0.0,0.01,-4.7472448349,2.07699108124,-8.0031747818,0.01,0.0,0.0,0.0,0.01,0.0,0.0,0.0,0.01
1585291169021418325,46077,1585291169020016972,foot_imu_link,0.233056500554,0.162171170115,0.508232831955,-0.813071131706,0.0,0.0,0.0,0.0,0.0,0.0,0.0,0.0,0.0,-0.00837040320039,0.00637173419818,0.00225518736988,0.01,0.0,0.0,0.0,0.01,0.0,0.0,0.0,0.01,-4.73882770538,2.06562709808,-7.99198961258,0.01,0.0,0.0,0.0,0.01,0.0,0.0,0.0,0.01
1585291169037664180,46078,1585291169035169560,foot_imu_link,0.233078807592,0.162129476666,0.508235931396,-0.813071131706,0.0,0.0,0.0,0.0,0.0,0.0,0.0,0.0,0.0,-0.00323193240911,0.00259916228242,0.00017386302352,0.01,0.0,0.0,0.0,0.01,0.0,0.0,0.0,0.01,-4.76740646362,2.06054925919,-7.98401451111,0.01,0.0,0.0,0.0,0.01,0.0,0.0,0.0,0.01
1585291169042777263,46079,1585291169042267281,foot_imu_link,0.233097344637,0.162100464106,0.508236825466,-0.813070952892,0.0,0.0,0.0,0.0,0.0,0.0,0.0,0.0,0.0,-0.00641211587936,0.00390512286685,0.00145993940532,0.01,0.0,0.0,0.0,0.01,0.0,0.0,0.0,0.01,-4.82818698883,2.03720855713,-7.99582099915,0.01,0.0,0.0,0.0,0.01,0.0,0.0,0.0,0.01
1585291169072183418,46080,1585291169071619762,foot_imu_link,0.23315051198,0.161998674273,0.508241295815,-0.813073217869,0.0,0.0,0.0,0.0,0.0,0.0,0.0,0.0,0.0,-0.0095763001591,0.00679225474596,0.00111923320219,0.01,0.0,0.0,0.0,0.01,0.0,0.0,0.0,0.01,-4.79742717743,2.05691313744,-8.01417350769,0.01,0.0,0.0,0.0,0.01,0.0,0.0,0.0,0.01
1585291169088261090,46081,1585291169087019808,foot_imu_link,0.233181640506,0.161922752857,0.508248806,-0.81307476759,0.0,0.0,0.0,0.0,0.0,0.0,0.0,0.0,0.0,-0.00802442524582,0.0077679650858,0.00214615371078,0.01,0.0,0.0,0.0,0.01,0.0,0.0,0.0,0.01,-4.78405189514,2.0534760952,-8.00840187073,0.01,0.0,0.0,0.0,0.01,0.0,0.0,0.0,0.01
1585291169104075444,46082,1585291169103522636,foot_imu_link,0.233196303248,0.161869466305,0.508248746395,-0.813081204891,0.0,0.0,0.0,0.0,0.0,0.0,0.0,0.0,0.0,-0.00396694522351,0.0032095592469,-9.71788540483e-05,0.01,0.0,0.0,0.0,0.01,0.0,0.0,0.0,0.01,-4.75287055969,2.04484033585,-7.9949760437,0.01,0.0,0.0,0.0,0.01,0.0,0.0,0.0,0.01
1585291169120536800,46083,1585291169119595623,foot_imu_link,0.233200728893,0.16182769835,0.508263111115,-0.813079297543,0.0,0.0,0.0,0.0,0.0,0.0,0.0,0.0,0.0,-0.00234844349325,0.00285650161095,0.000954418908805,0.01,0.0,0.0,0.0,0.01,0.0,0.0,0.0,0.01,-4.75949764252,2.0438683033,-8.01775074005,0.01,0.0,0.0,0.0,0.01,0.0,0.0,0.0,0.01
1585291169136437399,46084,1585291169134976446,foot_imu_link,0.233196645975,0.161808133125,0.508268117905,-0.813081204891,0.0,0.0,0.0,0.0,0.0,0.0,0.0,0.0,0.0,-0.00170658249408,0.00174369569868,-6.21094368398e-05,0.01,0.0,0.0,0.0,0.01,0.0,0.0,0.0,0.01,-4.77987861633,2.06766629219,-8.03264808655,0.01,0.0,0.0,0.0,0.01,0.0,0.0,0.0,0.01
1585291169150899055,46085,1585291169149823737,foot_imu_link,0.233190819621,0.161802634597,0.508277714252,-0.813077926636,0.0,0.0,0.0,0.0,0.0,0.0,0.0,0.0,0.0,0.000466687604785,0.00220873067155,-0.00140171637759,0.01,0.0,0.0,0.0,0.01,0.0,0.0,0.0,0.01,-4.78800821304,2.04830217361,-7.9968290329,0.01,0.0,0.0,0.0,0.01,0.0,0.0,0.0,0.01
1585291169171993436,46086,1585291169171395360,foot_imu_link,0.233183458447,0.161815926433,0.508297026157,-0.813065350056,0.0,0.0,0.0,0.0,0.0,0.0,0.0,0.0,0.0,0.00126511324197,-0.000922489911318,-0.00266816746444,0.01,0.0,0.0,0.0,0.01,0.0,0.0,0.0,0.01,-4.80114269257,2.05537557602,-8.01446437836,0.01,0.0,0.0,0.0,0.01,0.0,0.0,0.0,0.01
1585291169187455792,46087,1585291169186712510,foot_imu_link,0.233170971274,0.161821976304,0.508316397667,-0.813055574894,0.0,0.0,0.0,0.0,0.0,0.0,0.0,0.0,0.0,0.00125724449754,-0.000584345194511,-0.00320868846029,0.01,0.0,0.0,0.0,0.01,0.0,0.0,0.0,0.01,-4.74695968628,2.04142665863,-8.01251029968,0.01,0.0,0.0,0.0,0.01,0.0,0.0,0.0,0.01
1585291169202761628,46088,1585291169201748368,foot_imu_link,0.23315680027,0.161851063371,0.508337318897,-0.813040852547,0.0,0.0,0.0,0.0,0.0,0.0,0.0,0.0,0.0,0.0034440793097,-0.00284571596421,-0.00339641794562,0.01,0.0,0.0,0.0,0.01,0.0,0.0,0.0,0.01,-4.753241539,2.03217029572,-8.03377437592,0.01,0.0,0.0,0.0,0.01,0.0,0.0,0.0,0.01
1585291169219137486,46089,1585291169218530453,foot_imu_link,0.233144745231,0.161885589361,0.508341133595,-0.813035011292,0.0,0.0,0.0,0.0,0.0,0.0,0.0,0.0,0.0,0.000911937095225,-0.00246077217162,-0.00176885700785,0.01,0.0,0.0,0.0,0.01,0.0,0.0,0.0,0.01,-4.82207679749,2.05165958405,-8.04066371918,0.01,0.0,0.0,0.0,0.01,0.0,0.0,0.0,0.01
1585291169235419759,46090,1585291169234762935,foot_imu_link,0.233142957091,0.161912739277,0.508355379105,-0.813021183014,0.0,0.0,0.0,0.0,0.0,0.0,0.0,0.0,0.0,0.0019172495231,-0.000730513187591,-0.00287965103053,0.01,0.0,0.0,0.0,0.01,0.0,0.0,0.0,0.01,-4.78759336472,2.02473974228,-8.03324127197,0.01,0.0,0.0,0.0,0.01,0.0,0.0,0.0,0.01
1585291169251124668,46091,1585291169249617840,foot_imu_link,0.233121171594,0.161929145455,0.508358716965,-0.813022136688,0.0,0.0,0.0,0.0,0.0,0.0,0.0,0.0,0.0,0.00308503210545,8.66888731252e-05,-0.0016159680672,0.01,0.0,0.0,0.0,0.01,0.0,0.0,0.0,0.01,-4.78174257278,2.06581544876,-8.01647186279,0.01,0.0,0.0,0.0,0.01,0.0,0.0,0.0,0.01
1585291169265665801,46092,1585291169264951842,foot_imu_link,0.233108133078,0.161953225732,0.508370697498,-0.813013553619,0.0,0.0,0.0,0.0,0.0,0.0,0.0,0.0,0.0,0.00515990145504,-0.00112992094364,-0.00241239438765,0.01,0.0,0.0,0.0,0.01,0.0,0.0,0.0,0.01,-4.77707576752,2.03616070747,-8.01256847382,0.01,0.0,0.0,0.0,0.01,0.0,0.0,0.0,0.01
1585291169287005434,46093,1585291169286433335,foot_imu_link,0.233073621988,0.162017822266,0.508389472961,-0.812998890877,0.0,0.0,0.0,0.0,0.0,0.0,0.0,0.0,0.0,0.00614743307233,-0.00318541191518,-0.00396294286475,0.01,0.0,0.0,0.0,0.01,0.0,0.0,0.0,0.01,-4.7993683815,2.05618810654,-7.98116254807,0.01,0.0,0.0,0.0,0.01,0.0,0.0,0.0,0.01
1585291169302272218,46094,1585291169301705146,foot_imu_link,0.233044967055,0.162059649825,0.508396029472,-0.812994599342,0.0,0.0,0.0,0.0,0.0,0.0,0.0,0.0,0.0,0.00616061687469,-0.00204414245673,-0.00366432219744,0.01,0.0,0.0,0.0,0.01,0.0,0.0,0.0,0.01,-4.82018947601,2.07047533989,-7.99638271332,0.01,0.0,0.0,0.0,0.01,0.0,0.0,0.0,0.01
1585291169318869810,46095,1585291169318278626,foot_imu_link,0.233016386628,0.162091702223,0.508414447308,-0.812984883785,0.0,0.0,0.0,0.0,0.0,0.0,0.0,0.0,0.0,0.00617573596537,-0.00192566995975,-0.00433874316514,0.01,0.0,0.0,0.0,0.01,0.0,0.0,0.0,0.01,-4.77182435989,2.04591417313,-8.02605056763,0.01,0.0,0.0,0.0,0.01,0.0,0.0,0.0,0.01
1585291169334762638,46096,1585291169334237462,foot_imu_link,0.232966974378,0.162155687809,0.508432209492,-0.812975168228,0.0,0.0,0.0,0.0,0.0,0.0,0.0,0.0,0.0,0.00885339640081,-0.00322215328924,-0.00473019387573,0.01,0.0,0.0,0.0,0.01,0.0,0.0,0.0,0.01,-4.78893995285,2.02959084511,-8.01822757721,0.01,0.0,0.0,0.0,0.01,0.0,0.0,0.0,0.01
1585291169350283406,46097,1585291169349153549,foot_imu_link,0.232922643423,0.162224858999,0.508432745934,-0.812973678112,0.0,0.0,0.0,0.0,0.0,0.0,0.0,0.0,0.0,0.00981935672462,-0.00388782285154,-0.00320519786328,0.01,0.0,0.0,0.0,0.01,0.0,0.0,0.0,0.01,-4.77140569687,2.01069641113,-8.03736782074,0.01,0.0,0.0,0.0,0.01,0.0,0.0,0.0,0.01
1585291169365801483,46098,1585291169364692736,foot_imu_link,0.232876986265,0.162303686142,0.508429288864,-0.812973320484,0.0,0.0,0.0,0.0,0.0,0.0,0.0,0.0,0.0,0.0102152284235,-0.00438347412273,-0.00312021607533,0.01,0.0,0.0,0.0,0.01,0.0,0.0,0.0,0.01,-4.75683116913,2.02695250511,-8.02524852753,0.01,0.0,0.0,0.0,0.01,0.0,0.0,0.0,0.01
1585291169387118975,46099,1585291169386498190,foot_imu_link,0.232803016901,0.162425041199,0.508428215981,-0.812970876694,0.0,0.0,0.0,0.0,0.0,0.0,0.0,0.0,0.0,0.0133471237496,-0.00597242917866,-0.00390833988786,0.01,0.0,0.0,0.0,0.01,0.0,0.0,0.0,0.01,-4.78183364868,2.03743195534,-7.99741363525,0.01,0.0,0.0,0.0,0.01,0.0,0.0,0.0,0.01
1585291169402058546,46100,1585291169401470517,foot_imu_link,0.232750073075,0.162520989776,0.508418858051,-0.812972784042,0.0,0.0,0.0,0.0,0.0,0.0,0.0,0.0,0.0,0.0124011542648,-0.00638787308708,-0.00253435084596,0.01,0.0,0.0,0.0,0.01,0.0,0.0,0.0,0.01,-4.8074798584,2.02780151367,-8.00790309906,0.01,0.0,0.0,0.0,0.01,0.0,0.0,0.0,0.01
1585291169417413161,46101,1585291169416710221,foot_imu_link,0.232698783278,0.16260586679,0.508415699005,-0.812972426414,0.0,0.0,0.0,0.0,0.0,0.0,0.0,0.0,0.0,0.00947299599648,-0.00468064378947,-0.00347033049911,0.01,0.0,0.0,0.0,0.01,0.0,0.0,0.0,0.01,-4.82343292236,2.02909350395,-8.03629493713,0.01,0.0,0.0,0.0,0.01,0.0,0.0,0.0,0.01
1585291169434266736,46102,1585291169433647486,foot_imu_link,0.232679545879,0.162636995316,0.508438229561,-0.812957644463,0.0,0.0,0.0,0.0,0.0,0.0,0.0,0.0,0.0,0.00369652081281,-0.000213932144106,-0.00355491461232,0.01,0.0,0.0,0.0,0.01,0.0,0.0,0.0,0.01,-4.80601215363,2.05574321747,-8.01116752625,0.01,0.0,0.0,0.0,0.01,0.0,0.0,0.0,0.01
1585291169449787646,46103,1585291169449145900,foot_imu_link,0.232643187046,0.162666901946,0.50845760107,-0.812949895859,0.0,0.0,0.0,0.0,0.0,0.0,0.0,0.0,0.0,0.00353560131043,0.000435509544332,-0.00535170175135,0.01,0.0,0.0,0.0,0.01,0.0,0.0,0.0,0.01,-4.78546571732,2.04574418068,-8.04533290863,0.01,0.0,0.0,0.0,0.01,0.0,0.0,0.0,0.01
1585291169465005483,46104,1585291169464449577,foot_imu_link,0.232613161206,0.162696018815,0.508475661278,-0.812941431999,0.0,0.0,0.0,0.0,0.0,0.0,0.0,0.0,0.0,0.00480662658811,-0.00159325706773,-0.00421987194568,0.01,0.0,0.0,0.0,0.01,0.0,0.0,0.0,0.01,-4.78437662125,2.01827073097,-8.04918384552,0.01,0.0,0.0,0.0,0.01,0.0,0.0,0.0,0.01
1585291169480787014,46105,1585291169479939395,foot_imu_link,0.232591688633,0.162722587585,0.508496105671,-0.812929332256,0.0,0.0,0.0,0.0,0.0,0.0,0.0,0.0,0.0,0.0034587206319,-0.00174390675966,-0.00324956281111,0.01,0.0,0.0,0.0,0.01,0.0,0.0,0.0,0.01,-4.78054428101,2.03624844551,-8.01683235168,0.01,0.0,0.0,0.0,0.01,0.0,0.0,0.0,0.01
1585291169502227554,46106,1585291169501335882,foot_imu_link,0.232564359903,0.162754580379,0.508511781693,-0.812921047211,0.0,0.0,0.0,0.0,0.0,0.0,0.0,0.0,0.0,0.00230143032968,-0.00232928851619,-0.00198774691671,0.01,0.0,0.0,0.0,0.01,0.0,0.0,0.0,0.01,-4.80369663239,2.02081346512,-8.03022575378,0.01,0.0,0.0,0.0,0.01,0.0,0.0,0.0,0.01
1585291169517197690,46107,1585291169516567670,foot_imu_link,0.232557326555,0.162757158279,0.508516728878,-0.812919437885,0.0,0.0,0.0,0.0,0.0,0.0,0.0,0.0,0.0,-0.000368692912161,0.00131159543525,0.000105683226138,0.01,0.0,0.0,0.0,0.01,0.0,0.0,0.0,0.01,-4.80363941193,2.05251526833,-8.01203918457,0.01,0.0,0.0,0.0,0.01,0.0,0.0,0.0,0.01
1585291169533824213,46108,1585291169533225125,foot_imu_link,0.232563048601,0.162748098373,0.508531093597,-0.812910676003,0.0,0.0,0.0,0.0,0.0,0.0,0.0,0.0,0.0,-0.00271704886109,0.000488217367092,-0.0011590141803,0.01,0.0,0.0,0.0,0.01,0.0,0.0,0.0,0.01,-4.79966068268,2.04825377464,-8.02927589417,0.01,0.0,0.0,0.0,0.01,0.0,0.0,0.0,0.01
1585291169565241058,46109,1585291169564226948,foot_imu_link,0.232598662376,0.162685915828,0.508562326431,-0.812893331051,0.0,0.0,0.0,0.0,0.0,0.0,0.0,0.0,0.0,-0.00640551745892,0.00243807304651,0.000640500336885,0.01,0.0,0.0,0.0,0.01,0.0,0.0,0.0,0.01,-4.7933921814,2.02936720848,-8.0133228302,0.01,0.0,0.0,0.0,0.01,0.0,0.0,0.0,0.01
1585291169579774369,46110,1585291169579192338,foot_imu_link,0.232628896832,0.162650197744,0.50856423378,-0.812890589237,0.0,0.0,0.0,0.0,0.0,0.0,0.0,0.0,0.0,-0.00392071902752,0.00181330309715,0.000626161228865,0.01,0.0,0.0,0.0,0.01,0.0,0.0,0.0,0.01,-4.78467178345,2.03429031372,-8.03136444092,0.01,0.0,0.0,0.0,0.01,0.0,0.0,0.0,0.01
1585291169601723681,46111,1585291169601118438,foot_imu_link,0.232654318213,0.162625297904,0.508573114872,-0.812882840633,0.0,0.0,0.0,0.0,0.0,0.0,0.0,0.0,0.0,-0.00344328489155,-3.62983264495e-05,-0.00046431645751,0.01,0.0,0.0,0.0,0.01,0.0,0.0,0.0,0.01,-4.79497623444,2.04123735428,-7.98808145523,0.01,0.0,0.0,0.0,0.01,0.0,0.0,0.0,0.01
1585291169616966220,46112,1585291169616332949,foot_imu_link,0.232658103108,0.162611708045,0.508570730686,-0.812885940075,0.0,0.0,0.0,0.0,0.0,0.0,0.0,0.0,0.0,-5.11724501848e-05,2.87290895358e-05,0.000186319928616,0.01,0.0,0.0,0.0,0.01,0.0,0.0,0.0,0.01,-4.78954601288,2.03650784492,-8.02508640289,0.01,0.0,0.0,0.0,0.01,0.0,0.0,0.0,0.01
1585291169631983720,46113,1585291169631387587,foot_imu_link,0.232657507062,0.162614345551,0.508573651314,-0.812883734703,0.0,0.0,0.0,0.0,0.0,0.0,0.0,0.0,0.0,0.000502485781908,-0.000819611013867,-0.000801214948297,0.01,0.0,0.0,0.0,0.01,0.0,0.0,0.0,0.01,-4.78308725357,2.028028965,-8.01738166809,0.01,0.0,0.0,0.0,0.01,0.0,0.0,0.0,0.01
1585291169648895102,46114,1585291169648260207,foot_imu_link,0.232650846243,0.162618219852,0.508577644825,-0.812882363796,0.0,0.0,0.0,0.0,0.0,0.0,0.0,0.0,0.0,0.00147562567145,-0.00030036381213,-0.00241777882911,0.01,0.0,0.0,0.0,0.01,0.0,0.0,0.0,0.01,-4.76241636276,2.04765844345,-8.03240013123,0.01,0.0,0.0,0.0,0.01,0.0,0.0,0.0,0.01
1585291169665082740,46115,1585291169664089447,foot_imu_link,0.232634991407,0.162624448538,0.508580565453,-0.812883853912,0.0,0.0,0.0,0.0,0.0,0.0,0.0,0.0,0.0,0.000419576652348,0.000510343292262,-0.000723330304027,0.01,0.0,0.0,0.0,0.01,0.0,0.0,0.0,0.01,-4.81356716156,2.03522372246,-8.04774856567,0.01,0.0,0.0,0.0,0.01,0.0,0.0,0.0,0.01
1585291169679955589,46116,1585291169679367223,foot_imu_link,0.232618272305,0.16261588037,0.508591651917,-0.81288343668,0.0,0.0,0.0,0.0,0.0,0.0,0.0,0.0,0.0,0.000633255578578,0.00206199940294,-0.000189759768546,0.01,0.0,0.0,0.0,0.01,0.0,0.0,0.0,0.01,-4.80115795135,2.0444984436,-8.03397655487,0.01,0.0,0.0,0.0,0.01,0.0,0.0,0.0,0.01
1585291169694806818,46117,1585291169694260054,foot_imu_link,0.23261743784,0.162603899837,0.508603274822,-0.812878727913,0.0,0.0,0.0,0.0,0.0,0.0,0.0,0.0,0.0,-0.00190275907516,0.00227262475528,-0.00102316727862,0.01,0.0,0.0,0.0,0.01,0.0,0.0,0.0,0.01,-4.79988861084,2.03298163414,-8.00587558746,0.01,0.0,0.0,0.0,0.01,0.0,0.0,0.0,0.01
1585291169716989277,46118,1585291169716150307,foot_imu_link,0.232620581985,0.162583962083,0.50863134861,-0.812864243984,0.0,0.0,0.0,0.0,0.0,0.0,0.0,0.0,0.0,-0.000957608222961,0.00185651495121,-0.00163279660046,0.01,0.0,0.0,0.0,0.01,0.0,0.0,0.0,0.01,-4.766913414,2.0293443203,-7.99350214005,0.01,0.0,0.0,0.0,0.01,0.0,0.0,0.0,0.01
1585291169732078012,46119,1585291169731339530,foot_imu_link,0.232615798712,0.162577837706,0.508653819561,-0.812852799892,0.0,0.0,0.0,0.0,0.0,0.0,0.0,0.0,0.0,-3.30926850438e-05,1.12080888357e-05,-0.0012265664991,0.01,0.0,0.0,0.0,0.01,0.0,0.0,0.0,0.01,-4.7884645462,2.04503273964,-8.03495311737,0.01,0.0,0.0,0.0,0.01,0.0,0.0,0.0,0.01
1585291169748853884,46120,1585291169748124133,foot_imu_link,0.232619300485,0.162570729852,0.508664250374,-0.812846660614,0.0,0.0,0.0,0.0,0.0,0.0,0.0,0.0,0.0,-0.00344159360975,0.00100536399987,0.000108712352812,0.01,0.0,0.0,0.0,0.01,0.0,0.0,0.0,0.01,-4.79740905762,2.02961206436,-7.99817466736,0.01,0.0,0.0,0.0,0.01,0.0,0.0,0.0,0.01
1585291169780703501,46121,1585291169779094731,foot_imu_link,0.232677921653,0.162494570017,0.508683621883,-0.81283301115,0.0,0.0,0.0,0.0,0.0,0.0,0.0,0.0,0.0,-0.00684788543731,0.00598417315632,-0.0010546897538,0.01,0.0,0.0,0.0,0.01,0.0,0.0,0.0,0.01,-4.80628108978,2.04043221474,-8.03127670288,0.01,0.0,0.0,0.0,0.01,0.0,0.0,0.0,0.01
1585291169794910400,46122,1585291169794196104,foot_imu_link,0.232700809836,0.162453487515,0.508688092232,-0.812831878662,0.0,0.0,0.0,0.0,0.0,0.0,0.0,0.0,0.0,-0.00505625177175,0.00254925480112,-0.000701775308698,0.01,0.0,0.0,0.0,0.01,0.0,0.0,0.0,0.01,-4.8039560318,2.01962018013,-8.00005340576,0.01,0.0,0.0,0.0,0.01,0.0,0.0,0.0,0.01
1585291169820170556,46123,1585291169815951782,foot_imu_link,0.232727736235,0.162419095635,0.508709073067,-0.812817931175,0.0,0.0,0.0,0.0,0.0,0.0,0.0,0.0,0.0,-0.00382998026907,0.00195271137636,-0.000799869652838,0.01,0.0,0.0,0.0,0.01,0.0,0.0,0.0,0.01,-4.78422021866,2.02323937416,-8.00311470032,0.01,0.0,0.0,0.0,0.01,0.0,0.0,0.0,0.01
1585291169834694738,46124,1585291169831222355,foot_imu_link,0.232732102275,0.162405222654,0.508720099926,-0.812812566757,0.0,0.0,0.0,0.0,0.0,0.0,0.0,0.0,0.0,-0.00219114124775,0.00121513742488,-0.00044710142538,0.01,0.0,0.0,0.0,0.01,0.0,0.0,0.0,0.01,-4.81253910065,2.02064824104,-8.01993656158,0.01,0.0,0.0,0.0,0.01,0.0,0.0,0.0,0.01
1585291169847322207,46125,1585291169846381327,foot_imu_link,0.232745543122,0.162380680442,0.508733272552,-0.8128054142,0.0,0.0,0.0,0.0,0.0,0.0,0.0,0.0,0.0,-0.00425376277417,0.00273264711723,0.000409679021686,0.01,0.0,0.0,0.0,0.01,0.0,0.0,0.0,0.01,-4.79309082031,2.03486084938,-8.08507823944,0.01,0.0,0.0,0.0,0.01,0.0,0.0,0.0,0.01
1585291169864340340,46126,1585291169862983217,foot_imu_link,0.232768371701,0.162324517965,0.508739590645,-0.812806069851,0.0,0.0,0.0,0.0,0.0,0.0,0.0,0.0,0.0,-0.00797458086163,0.00596558628604,0.000468998681754,0.01,0.0,0.0,0.0,0.01,0.0,0.0,0.0,0.01,-4.76953649521,2.04681324959,-8.01412010193,0.01,0.0,0.0,0.0,0.01,0.0,0.0,0.0,0.01
1585291169879990723,46127,1585291169878862265,foot_imu_link,0.232824832201,0.162216871977,0.50874632597,-0.812807202339,0.0,0.0,0.0,0.0,0.0,0.0,0.0,0.0,0.0,-0.0118106482551,0.00801136065274,0.00275770761073,0.01,0.0,0.0,0.0,0.01,0.0,0.0,0.0,0.01,-4.80344009399,2.02289485931,-8.02535629272,0.01,0.0,0.0,0.0,0.01,0.0,0.0,0.0,0.01
1585291169894919932,46128,1585291169893994159,foot_imu_link,0.232888609171,0.162094041705,0.508768320084,-0.812799632549,0.0,0.0,0.0,0.0,0.0,0.0,0.0,0.0,0.0,-0.0183554291725,0.00998852774501,0.00226471154019,0.01,0.0,0.0,0.0,0.01,0.0,0.0,0.0,0.01,-4.78682565689,2.08152770996,-8.01041603088,0.01,0.0,0.0,0.0,0.01,0.0,0.0,0.0,0.01
1585291169909491837,46129,1585291169908812886,foot_imu_link,0.232966527343,0.161948144436,0.508787095547,-0.812794685364,0.0,0.0,0.0,0.0,0.0,0.0,0.0,0.0,0.0,-0.020317081362,0.0104375770316,0.00526376860216,0.01,0.0,0.0,0.0,0.01,0.0,0.0,0.0,0.01,-4.78236293793,2.02439022064,-8.02135467529,0.01,0.0,0.0,0.0,0.01,0.0,0.0,0.0,0.01
1585291169931356053,46130,1585291169930603286,foot_imu_link,0.233103707433,0.161713391542,0.508808135986,-0.812788844109,0.0,0.0,0.0,0.0,0.0,0.0,0.0,0.0,0.0,-0.0247420817614,0.0122208753601,0.00635939557105,0.01,0.0,0.0,0.0,0.01,0.0,0.0,0.0,0.01,-4.76508045197,2.05473995209,-8.05564212799,0.01,0.0,0.0,0.0,0.01,0.0,0.0,0.0,0.01
1585291169946619433,46131,1585291169945928275,foot_imu_link,0.233308076859,0.161446332932,0.508850872517,-0.812756597996,0.0,0.0,0.0,0.0,0.0,0.0,0.0,0.0,0.0,-0.0300096683204,0.00418136967346,0.00324912276119,0.01,0.0,0.0,0.0,0.01,0.0,0.0,0.0,0.01,-4.86553812027,2.12172579765,-7.7368850708,0.01,0.0,0.0,0.0,0.01,0.0,0.0,0.0,0.01
1585291169963151256,46132,1585291169962571472,foot_imu_link,0.233402475715,0.161281555891,0.508857011795,-0.812758386135,0.0,0.0,0.0,0.0,0.0,0.0,0.0,0.0,0.0,-0.0209993906319,0.0115901501849,0.00702815549448,0.01,0.0,0.0,0.0,0.01,0.0,0.0,0.0,0.01,-4.78358364105,2.04375267029,-8.09366035461,0.01,0.0,0.0,0.0,0.01,0.0,0.0,0.0,0.01
1585291169993594260,46133,1585291169993361635,foot_imu_link,0.233697667718,0.160743698478,0.508869886398,-0.812771975994,0.0,0.0,0.0,0.0,0.0,0.0,0.0,0.0,0.0,-0.0298878643662,0.0182852074504,0.0112164337188,0.01,0.0,0.0,0.0,0.01,0.0,0.0,0.0,0.01,-4.71885633469,2.03141212463,-8.04479408264,0.01,0.0,0.0,0.0,0.01,0.0,0.0,0.0,0.01
1585291170008717197,46134,1585291170008482527,foot_imu_link,0.233824566007,0.160481706262,0.50887209177,-0.812785983086,0.0,0.0,0.0,0.0,0.0,0.0,0.0,0.0,0.0,-0.0285195745528,0.0212153382599,0.00985952839255,0.01,0.0,0.0,0.0,0.01,0.0,0.0,0.0,0.01,-4.68450307846,2.05612564087,-8.00253009796,0.01,0.0,0.0,0.0,0.01,0.0,0.0,0.0,0.01
1585291170046073963,46135,1585291170045713777,foot_imu_link,0.234059870243,0.160063937306,0.508867621422,-0.812803268433,0.0,0.0,0.0,0.0,0.0,0.0,0.0,0.0,0.0,-0.0268620736897,0.0128469448537,0.00753735657781,0.01,0.0,0.0,0.0,0.01,0.0,0.0,0.0,0.01,-4.72231864929,2.0915760994,-8.0492181778,0.01,0.0,0.0,0.0,0.01,0.0,0.0,0.0,0.01
1585291170061442423,46136,1585291170060950534,foot_imu_link,0.234215319157,0.159792527556,0.508891165257,-0.812797248363,0.0,0.0,0.0,0.0,0.0,0.0,0.0,0.0,0.0,-0.0337580740452,0.0224739070982,0.00897150672972,0.01,0.0,0.0,0.0,0.01,0.0,0.0,0.0,0.01,-4.80996465683,2.11348962784,-8.02451896667,0.01,0.0,0.0,0.0,0.01,0.0,0.0,0.0,0.01
1585291170079262406,46137,1585291170078047258,foot_imu_link,0.234351545572,0.159538984299,0.508904516697,-0.812799453735,0.0,0.0,0.0,0.0,0.0,0.0,0.0,0.0,0.0,-0.0337812080979,0.0200812369585,0.00847756117582,0.01,0.0,0.0,0.0,0.01,0.0,0.0,0.0,0.01,-4.72285556793,2.10262298584,-7.99082279205,0.01,0.0,0.0,0.0,0.01,0.0,0.0,0.0,0.01
1585291170094581970,46138,1585291170093788224,foot_imu_link,0.234523028135,0.15923191607,0.508942306042,-0.812786519527,0.0,0.0,0.0,0.0,0.0,0.0,0.0,0.0,0.0,-0.0222547892481,0.014477096498,0.00496577471495,0.01,0.0,0.0,0.0,0.01,0.0,0.0,0.0,0.01,-4.77394580841,2.05201721191,-8.02422332764,0.01,0.0,0.0,0.0,0.01,0.0,0.0,0.0,0.01
1585291170110068164,46139,1585291170109008175,foot_imu_link,0.23463383317,0.159033343196,0.5089635849,-0.81278014183,0.0,0.0,0.0,0.0,0.0,0.0,0.0,0.0,0.0,-0.0276927947998,0.0175016857684,0.00564240757376,0.01,0.0,0.0,0.0,0.01,0.0,0.0,0.0,0.01,-4.8216586113,2.15320849419,-8.02893257141,0.01,0.0,0.0,0.0,0.01,0.0,0.0,0.0,0.01
1585291170124633428,46140,1585291170124028900,foot_imu_link,0.234752699733,0.158783435822,0.508995473385,-0.812774717808,0.0,0.0,0.0,0.0,0.0,0.0,0.0,0.0,0.0,-0.034181881696,0.01846858114,0.00487809441984,0.01,0.0,0.0,0.0,0.01,0.0,0.0,0.0,0.01,-4.60103321075,2.10581922531,-8.02495288849,0.01,0.0,0.0,0.0,0.01,0.0,0.0,0.0,0.01
1585291170146437396,46141,1585291170145874593,foot_imu_link,0.234854400158,0.158586084843,0.509039342403,-0.812756240368,0.0,0.0,0.0,0.0,0.0,0.0,0.0,0.0,0.0,-0.0147563954815,0.0110163884237,0.00171840796247,0.01,0.0,0.0,0.0,0.01,0.0,0.0,0.0,0.01,-4.72028827667,2.11646175385,-8.04399013519,0.01,0.0,0.0,0.0,0.01,0.0,0.0,0.0,0.01
1585291170161921273,46142,1585291170160938517,foot_imu_link,0.234891355038,0.158512324095,0.509054481983,-0.812750577927,0.0,0.0,0.0,0.0,0.0,0.0,0.0,0.0,0.0,-0.00657334364951,0.00225770939142,0.000651739537716,0.01,0.0,0.0,0.0,0.01,0.0,0.0,0.0,0.01,-4.70269870758,2.07619571686,-7.97851896286,0.01,0.0,0.0,0.0,0.01,0.0,0.0,0.0,0.01
1585291170178265083,46143,1585291170177409959,foot_imu_link,0.234890982509,0.15850995481,0.509055554867,-0.812750458717,0.0,0.0,0.0,0.0,0.0,0.0,0.0,0.0,0.0,0.00274029746652,-0.000342942570569,0.000625382177532,0.01,0.0,0.0,0.0,0.01,0.0,0.0,0.0,0.01,-4.7403588295,2.08833026886,-8.00046539307,0.01,0.0,0.0,0.0,0.01,0.0,0.0,0.0,0.01
1585291170209175034,46144,1585291170208583024,foot_imu_link,0.234841346741,0.158605799079,0.509042799473,-0.812754154205,0.0,0.0,0.0,0.0,0.0,0.0,0.0,0.0,0.0,0.00684038456529,-0.00324974767864,-0.00165311759338,0.01,0.0,0.0,0.0,0.01,0.0,0.0,0.0,0.01,-4.70304012299,2.11504626274,-7.99274682999,0.01,0.0,0.0,0.0,0.01,0.0,0.0,0.0,0.01
1585291170224294223,46145,1585291170223727022,foot_imu_link,0.234799265862,0.158678978682,0.509030759335,-0.812759518623,0.0,0.0,0.0,0.0,0.0,0.0,0.0,0.0,0.0,0.0116281509399,-0.00619054445997,-0.00191983650438,0.01,0.0,0.0,0.0,0.01,0.0,0.0,0.0,0.01,-4.72979021072,2.0872733593,-8.00867462158,0.01,0.0,0.0,0.0,0.01,0.0,0.0,0.0,0.01
1585291170261307307,46146,1585291170260619087,foot_imu_link,0.234607025981,0.159006506205,0.508999705315,-0.812770426273,0.0,0.0,0.0,0.0,0.0,0.0,0.0,0.0,0.0,0.0228270068765,-0.0116713205352,-0.00536627834663,0.01,0.0,0.0,0.0,0.01,0.0,0.0,0.0,0.01,-4.75900363922,2.07774019241,-8.02762126923,0.01,0.0,0.0,0.0,0.01,0.0,0.0,0.0,0.01
1585291170276678753,46147,1585291170275836780,foot_imu_link,0.234487071633,0.15920342505,0.508967280388,-0.812786877155,0.0,0.0,0.0,0.0,0.0,0.0,0.0,0.0,0.0,0.0291517134756,-0.0133722638711,-0.00505395978689,0.01,0.0,0.0,0.0,0.01,0.0,0.0,0.0,0.01,-4.73701047897,2.08780097961,-8.01434612274,0.01,0.0,0.0,0.0,0.01,0.0,0.0,0.0,0.01
1585291170293358378,46148,1585291170292713006,foot_imu_link,0.234336048365,0.159446537495,0.508948326111,-0.812794625759,0.0,0.0,0.0,0.0,0.0,0.0,0.0,0.0,0.0,0.0372837781906,-0.0181918181479,-0.0109708737582,0.01,0.0,0.0,0.0,0.01,0.0,0.0,0.0,0.01,-4.70004463196,2.10209846497,-7.9974732399,0.01,0.0,0.0,0.0,0.01,0.0,0.0,0.0,0.01
1585291170309699315,46149,1585291170308754466,foot_imu_link,0.234152600169,0.159728467464,0.508946895599,-0.812792956829,0.0,0.0,0.0,0.0,0.0,0.0,0.0,0.0,0.0,0.0208976306021,-0.00580936018378,-0.00821206718683,0.01,0.0,0.0,0.0,0.01,0.0,0.0,0.0,0.01,-4.84155273438,2.04406404495,-8.10639381409,0.01,0.0,0.0,0.0,0.01,0.0,0.0,0.0,0.01
1585291170324135521,46150,1585291170323540045,foot_imu_link,0.234085097909,0.159800097346,0.508953034878,-0.81279450655,0.0,0.0,0.0,0.0,0.0,0.0,0.0,0.0,0.0,0.0092353541404,-0.00127634312958,-0.00382702425122,0.01,0.0,0.0,0.0,0.01,0.0,0.0,0.0,0.01,-4.74449443817,2.06856560707,-8.01047325134,0.01,0.0,0.0,0.0,0.01,0.0,0.0,0.0,0.01
1585291170339461441,46151,1585291170338888429,foot_imu_link,0.234035119414,0.159853100777,0.508962154388,-0.812792778015,0.0,0.0,0.0,0.0,0.0,0.0,0.0,0.0,0.0,0.00919983536005,-0.0025599792134,-0.00521913357079,0.01,0.0,0.0,0.0,0.01,0.0,0.0,0.0,0.01,-4.74205207825,2.0750169754,-8.01241111755,0.01,0.0,0.0,0.0,0.01,0.0,0.0,0.0,0.01
1585291170360985348,46152,1585291170360385702,foot_imu_link,0.233975917101,0.159937143326,0.508967518806,-0.812789857388,0.0,0.0,0.0,0.0,0.0,0.0,0.0,0.0,0.0,0.00911722518504,-0.0047673759982,-0.0032947040163,0.01,0.0,0.0,0.0,0.01,0.0,0.0,0.0,0.01,-4.77623271942,2.06845903397,-8.01452827454,0.01,0.0,0.0,0.0,0.01,0.0,0.0,0.0,0.01
1585291170376327624,46153,1585291170375694779,foot_imu_link,0.233928486705,0.160019993782,0.508956134319,-0.812794387341,0.0,0.0,0.0,0.0,0.0,0.0,0.0,0.0,0.0,0.0113128200173,-0.00594052253291,-0.00366684235632,0.01,0.0,0.0,0.0,0.01,0.0,0.0,0.0,0.01,-4.74638557434,2.07008886337,-8.03836727142,0.01,0.0,0.0,0.0,0.01,0.0,0.0,0.0,0.01
1585291170392956199,46154,1585291170392369234,foot_imu_link,0.233885645866,0.160111024976,0.508938491344,-0.812799870968,0.0,0.0,0.0,0.0,0.0,0.0,0.0,0.0,0.0,0.0110499151051,-0.00709157017991,-0.00186105864123,0.01,0.0,0.0,0.0,0.01,0.0,0.0,0.0,0.01,-4.76524353027,2.09741091728,-8.04671764374,0.01,0.0,0.0,0.0,0.01,0.0,0.0,0.0,0.01
1585291170424329696,46155,1585291170423574659,foot_imu_link,0.233740210533,0.160364374518,0.508928537369,-0.812798023224,0.0,0.0,0.0,0.0,0.0,0.0,0.0,0.0,0.0,0.0163934286684,-0.00820792838931,-0.00514544732869,0.01,0.0,0.0,0.0,0.01,0.0,0.0,0.0,0.01,-4.75087451935,2.06467986107,-7.98378753662,0.01,0.0,0.0,0.0,0.01,0.0,0.0,0.0,0.01
1585291170439945229,46156,1585291170438785359,foot_imu_link,0.233655378222,0.160522773862,0.50892573595,-0.812792897224,0.0,0.0,0.0,0.0,0.0,0.0,0.0,0.0,0.0,0.0211521349847,-0.0133362812921,-0.00746035203338,0.01,0.0,0.0,0.0,0.01,0.0,0.0,0.0,0.01,-4.73774337769,2.07620859146,-8.03110694885,0.01,0.0,0.0,0.0,0.01,0.0,0.0,0.0,0.01
1585291170476154246,46157,1585291170475441009,foot_imu_link,0.233391240239,0.16100089252,0.508918642998,-0.812778651714,0.0,0.0,0.0,0.0,0.0,0.0,0.0,0.0,0.0,0.0279443748295,-0.015648342669,-0.00855771265924,0.01,0.0,0.0,0.0,0.01,0.0,0.0,0.0,0.01,-4.83344745636,2.05664229393,-8.07018852234,0.01,0.0,0.0,0.0,0.01,0.0,0.0,0.0,0.01
1585291170491499700,46158,1585291170490839015,foot_imu_link,0.233275651932,0.161186665297,0.508926033974,-0.812770426273,0.0,0.0,0.0,0.0,0.0,0.0,0.0,0.0,0.0,0.0237885713577,-0.0120087899268,-0.00901678949594,0.01,0.0,0.0,0.0,0.01,0.0,0.0,0.0,0.01,-4.73151254654,2.03385734558,-8.02100753784,0.01,0.0,0.0,0.0,0.01,0.0,0.0,0.0,0.01
1585291170507991712,46159,1585291170507391348,foot_imu_link,0.233180448413,0.161363407969,0.508939445019,-0.81275421381,0.0,0.0,0.0,0.0,0.0,0.0,0.0,0.0,0.0,0.0227068923414,-0.010648554191,-0.00967453140765,0.01,0.0,0.0,0.0,0.01,0.0,0.0,0.0,0.01,-4.89468383789,2.05928015709,-7.97941970825,0.01,0.0,0.0,0.0,0.01,0.0,0.0,0.0,0.01
1585291170524753501,46160,1585291170523184567,foot_imu_link,0.233060598373,0.161566033959,0.508955478668,-0.812738358974,0.0,0.0,0.0,0.0,0.0,0.0,0.0,0.0,0.0,0.0140639478341,-0.0105266030878,-0.00453317398205,0.01,0.0,0.0,0.0,0.01,0.0,0.0,0.0,0.01,-4.89188194275,2.08600354195,-8.0613899231,0.01,0.0,0.0,0.0,0.01,0.0,0.0,0.0,0.01
1585291170539328576,46161,1585291170538426152,foot_imu_link,0.233027949929,0.161616966128,0.508957087994,-0.812736451626,0.0,0.0,0.0,0.0,0.0,0.0,0.0,0.0,0.0,0.00357425492257,-0.00207903934643,-0.00217835349031,0.01,0.0,0.0,0.0,0.01,0.0,0.0,0.0,0.01,-4.79909658432,2.01972818375,-8.07764053345,0.01,0.0,0.0,0.0,0.01,0.0,0.0,0.0,0.01
1585291170554312070,46162,1585291170553647117,foot_imu_link,0.233015477657,0.161625057459,0.508958160877,-0.812737822533,0.0,0.0,0.0,0.0,0.0,0.0,0.0,0.0,0.0,0.00129640940577,0.000644635001663,-0.000763863325119,0.01,0.0,0.0,0.0,0.01,0.0,0.0,0.0,0.01,-4.78820323944,2.06550073624,-8.04065227509,0.01,0.0,0.0,0.0,0.01,0.0,0.0,0.0,0.01
1585291170576043717,46163,1585291170575466205,foot_imu_link,0.232997924089,0.161647349596,0.508974671364,-0.812728106976,0.0,0.0,0.0,0.0,0.0,0.0,0.0,0.0,0.0,0.00304538477212,-0.000340345373843,-0.00320619903505,0.01,0.0,0.0,0.0,0.01,0.0,0.0,0.0,0.01,-4.79780960083,2.0406665802,-8.03337574005,0.01,0.0,0.0,0.0,0.01,0.0,0.0,0.0,0.01
1585291170591014442,46164,1585291170590436943,foot_imu_link,0.232979506254,0.16167576611,0.508984088898,-0.812721729279,0.0,0.0,0.0,0.0,0.0,0.0,0.0,0.0,0.0,0.00478336960077,-0.00222105020657,-0.00301473308355,0.01,0.0,0.0,0.0,0.01,0.0,0.0,0.0,0.01,-4.76550912857,2.06370639801,-8.01956939697,0.01,0.0,0.0,0.0,0.01,0.0,0.0,0.0,0.01
1585291170608044593,46165,1585291170607312049,foot_imu_link,0.232975244522,0.161694645882,0.508990764618,-0.812715113163,0.0,0.0,0.0,0.0,0.0,0.0,0.0,0.0,0.0,-0.00156838819385,-0.00113017228432,-0.00178389484063,0.01,0.0,0.0,0.0,0.01,0.0,0.0,0.0,0.01,-4.83244466782,2.04320955276,-8.08332538605,0.01,0.0,0.0,0.0,0.01,0.0,0.0,0.0,0.01
1585291170638566455,46166,1585291170638006406,foot_imu_link,0.233112424612,0.161496624351,0.509060323238,-0.812671542168,0.0,0.0,0.0,0.0,0.0,0.0,0.0,0.0,0.0,-0.0170075967908,0.00471163773909,0.00191096635535,0.01,0.0,0.0,0.0,0.01,0.0,0.0,0.0,0.01,-4.77390623093,1.98595750332,-8.0393409729,0.01,0.0,0.0,0.0,0.01,0.0,0.0,0.0,0.01
1585291170654500783,46167,1585291170653468162,foot_imu_link,0.233193978667,0.161391586065,0.509075760841,-0.812659323215,0.0,0.0,0.0,0.0,0.0,0.0,0.0,0.0,0.0,-0.0153929777443,0.00526507617906,0.00354829244316,0.01,0.0,0.0,0.0,0.01,0.0,0.0,0.0,0.01,-4.74103832245,2.02539992332,-8.00902271271,0.01,0.0,0.0,0.0,0.01,0.0,0.0,0.0,0.01
1585291170690996148,46168,1585291170690343505,foot_imu_link,0.233319103718,0.161217063665,0.50905251503,-0.812672674656,0.0,0.0,0.0,0.0,0.0,0.0,0.0,0.0,0.0,-0.0111905373633,0.00594614446163,0.00497561413795,0.01,0.0,0.0,0.0,0.01,0.0,0.0,0.0,0.01,-4.79714393616,2.05701851845,-8.03974914551,0.01,0.0,0.0,0.0,0.01,0.0,0.0,0.0,0.01
1585291170705953789,46169,1585291170705400849,foot_imu_link,0.233360022306,0.161136254668,0.509055554867,-0.812675058842,0.0,0.0,0.0,0.0,0.0,0.0,0.0,0.0,0.0,-0.0104587413371,0.00602363329381,0.00209088996053,0.01,0.0,0.0,0.0,0.01,0.0,0.0,0.0,0.01,-4.76170539856,2.09785437584,-8.01595878601,0.01,0.0,0.0,0.0,0.01,0.0,0.0,0.0,0.01
1585291170722892873,46170,1585291170722348803,foot_imu_link,0.233388796449,0.161072060466,0.509060800076,-0.81267619133,0.0,0.0,0.0,0.0,0.0,0.0,0.0,0.0,0.0,-0.00641840323806,0.00440235389397,0.00128894206136,0.01,0.0,0.0,0.0,0.01,0.0,0.0,0.0,0.01,-4.78026390076,2.04288768768,-8.00823688507,0.01,0.0,0.0,0.0,0.01,0.0,0.0,0.0,0.01
1585291170738657309,46171,1585291170738058144,foot_imu_link,0.233415544033,0.16100217402,0.509077012539,-0.812672197819,0.0,0.0,0.0,0.0,0.0,0.0,0.0,0.0,0.0,-0.00673199910671,0.00342107913457,0.00240364437923,0.01,0.0,0.0,0.0,0.01,0.0,0.0,0.0,0.01,-4.7579832077,2.0384323597,-8.05577468872,0.01,0.0,0.0,0.0,0.01,0.0,0.0,0.0,0.01
1585291170753732085,46172,1585291170753166134,foot_imu_link,0.233430847526,0.160940214992,0.509082138538,-0.812676906586,0.0,0.0,0.0,0.0,0.0,0.0,0.0,0.0,0.0,-0.00588541850448,0.00319849397056,0.00106747355312,0.01,0.0,0.0,0.0,0.01,0.0,0.0,0.0,0.01,-4.76163578033,2.0623049736,-8.03322601318,0.01,0.0,0.0,0.0,0.01,0.0,0.0,0.0,0.01
1585291170769113999,46173,1585291170768453288,foot_imu_link,0.233446240425,0.160910636187,0.509058654308,-0.812693059444,0.0,0.0,0.0,0.0,0.0,0.0,0.0,0.0,0.0,-0.00305401720107,0.003498920938,0.00423926860094,0.01,0.0,0.0,0.0,0.01,0.0,0.0,0.0,0.01,-4.80237388611,2.06891107559,-8.02997016907,0.01,0.0,0.0,0.0,0.01,0.0,0.0,0.0,0.01
1585291170790699111,46174,1585291170790044184,foot_imu_link,0.233468994498,0.160870626569,0.509030282497,-0.812712192535,0.0,0.0,0.0,0.0,0.0,0.0,0.0,0.0,0.0,-0.00279615726322,0.000779543130193,0.00429123267531,0.01,0.0,0.0,0.0,0.01,0.0,0.0,0.0,0.01,-4.76193523407,2.08401417732,-7.98834466934,0.01,0.0,0.0,0.0,0.01,0.0,0.0,0.0,0.01
1585291170806149465,46175,1585291170805484956,foot_imu_link,0.233475878835,0.160849794745,0.509008646011,-0.812727928162,0.0,0.0,0.0,0.0,0.0,0.0,0.0,0.0,0.0,-0.00108201708645,0.0023226023186,0.00250305049121,0.01,0.0,0.0,0.0,0.01,0.0,0.0,0.0,0.01,-4.76494407654,2.06167984009,-8.03519821167,0.01,0.0,0.0,0.0,0.01,0.0,0.0,0.0,0.01
1585291170822669136,46176,1585291170822088162,foot_imu_link,0.233480527997,0.160832062364,0.50898963213,-0.812741935253,0.0,0.0,0.0,0.0,0.0,0.0,0.0,0.0,0.0,-0.00237726885825,0.0023674252443,0.00386519683525,0.01,0.0,0.0,0.0,0.01,0.0,0.0,0.0,0.01,-4.78852033615,2.06539058685,-8.05364608765,0.01,0.0,0.0,0.0,0.01,0.0,0.0,0.0,0.01
1585291170853723675,46177,1585291170853145043,foot_imu_link,0.233520939946,0.160702466965,0.508977472782,-0.812763571739,0.0,0.0,0.0,0.0,0.0,0.0,0.0,0.0,0.0,-0.00408050790429,0.00410275533795,0.00208449317142,0.01,0.0,0.0,0.0,0.01,0.0,0.0,0.0,0.01,-4.76567411423,2.07860684395,-8.01412391663,0.01,0.0,0.0,0.0,0.01,0.0,0.0,0.0,0.01
1585291170868519357,46178,1585291170868068854,foot_imu_link,0.233523875475,0.160673141479,0.508974969387,-0.81277012825,0.0,0.0,0.0,0.0,0.0,0.0,0.0,0.0,0.0,-0.000266090966761,0.00089006847702,0.0020606322214,0.01,0.0,0.0,0.0,0.01,0.0,0.0,0.0,0.01,-4.75705623627,2.03569149971,-8.05079650879,0.01,0.0,0.0,0.0,0.01,0.0,0.0,0.0,0.01
1585291170905661561,46179,1585291170905125435,foot_imu_link,0.233536183834,0.160630345345,0.50892418623,-0.812806844711,0.0,0.0,0.0,0.0,0.0,0.0,0.0,0.0,0.0,-0.00156674161553,-0.000252903206274,0.00573688279837,0.01,0.0,0.0,0.0,0.01,0.0,0.0,0.0,0.01,-4.78525876999,2.04807376862,-8.03785991669,0.01,0.0,0.0,0.0,0.01,0.0,0.0,0.0,0.01
1585291170921059825,46180,1585291170920418898,foot_imu_link,0.233556032181,0.160612538457,0.508883357048,-0.812830209732,0.0,0.0,0.0,0.0,0.0,0.0,0.0,0.0,0.0,-0.00190781895071,-0.000608246657066,0.00727829243988,0.01,0.0,0.0,0.0,0.01,0.0,0.0,0.0,0.01,-4.75608158112,2.06809639931,-8.03704071045,0.01,0.0,0.0,0.0,0.01,0.0,0.0,0.0,0.01
1585291170937415811,46181,1585291170936873245,foot_imu_link,0.233570307493,0.160602405667,0.508847117424,-0.812850832939,0.0,0.0,0.0,0.0,0.0,0.0,0.0,0.0,0.0,-0.000744576565921,-0.00112281437032,0.00531094055623,0.01,0.0,0.0,0.0,0.01,0.0,0.0,0.0,0.01,-4.74703407288,2.07140207291,-7.98675870895,0.01,0.0,0.0,0.0,0.01,0.0,0.0,0.0,0.01
1585291170954008359,46182,1585291170953098316,foot_imu_link,0.233597025275,0.16059371829,0.508814573288,-0.812865197659,0.0,0.0,0.0,0.0,0.0,0.0,0.0,0.0,0.0,-0.00234589725733,0.000244830764132,0.0014577312395,0.01,0.0,0.0,0.0,0.01,0.0,0.0,0.0,0.01,-4.76245594025,2.0900452137,-7.98885917664,0.01,0.0,0.0,0.0,0.01,0.0,0.0,0.0,0.01
1585291170968393248,46183,1585291170967915384,foot_imu_link,0.233609616756,0.160596132278,0.508800685406,-0.812869846821,0.0,0.0,0.0,0.0,0.0,0.0,0.0,0.0,0.0,8.94702970982e-05,-0.00136066460982,0.000169864390045,0.01,0.0,0.0,0.0,0.01,0.0,0.0,0.0,0.01,-4.76286411285,2.06646227837,-8.01465034485,0.01,0.0,0.0,0.0,0.01,0.0,0.0,0.0,0.01
1585291170984768287,46184,1585291170983402627,foot_imu_link,0.233624443412,0.160600319505,0.508790612221,-0.812871038914,0.0,0.0,0.0,0.0,0.0,0.0,0.0,0.0,0.0,-0.00159452110529,-0.000753897125833,-0.000767763704062,0.01,0.0,0.0,0.0,0.01,0.0,0.0,0.0,0.01,-4.78536844254,2.06516003609,-7.99950408936,0.01,0.0,0.0,0.0,0.01,0.0,0.0,0.0,0.01
1585291171006567145,46185,1585291171004964311,foot_imu_link,0.233640506864,0.160595938563,0.50878149271,-0.812872886658,0.0,0.0,0.0,0.0,0.0,0.0,0.0,0.0,0.0,-0.00170622114092,-0.00102453189902,0.000944913364947,0.01,0.0,0.0,0.0,0.01,0.0,0.0,0.0,0.01,-4.76074171066,2.0519618988,-7.98629617691,0.01,0.0,0.0,0.0,0.01,0.0,0.0,0.0,0.01
1585291171022086793,46186,1585291171020015077,foot_imu_link,0.233660325408,0.160579055548,0.508762657642,-0.812882483006,0.0,0.0,0.0,0.0,0.0,0.0,0.0,0.0,0.0,-0.0049169510603,0.000127493593027,0.00417650956661,0.01,0.0,0.0,0.0,0.01,0.0,0.0,0.0,0.01,-4.78304243088,2.06649827957,-7.99369382858,0.01,0.0,0.0,0.0,0.01,0.0,0.0,0.0,0.01
1585291171039218593,46187,1585291171035342245,foot_imu_link,0.23369383812,0.160539776087,0.508740723133,-0.812894284725,0.0,0.0,0.0,0.0,0.0,0.0,0.0,0.0,0.0,-0.00699998252094,0.00271770381369,0.00837602373213,0.01,0.0,0.0,0.0,0.01,0.0,0.0,0.0,0.01,-4.77732849121,2.06190776825,-8.02364826202,0.01,0.0,0.0,0.0,0.01,0.0,0.0,0.0,0.01
1585291171045176871,46188,1585291171044054921,foot_imu_link,0.233721166849,0.160506591201,0.508722305298,-0.812904536724,0.0,0.0,0.0,0.0,0.0,0.0,0.0,0.0,0.0,-0.00668606627733,0.00251895305701,0.00691235018894,0.01,0.0,0.0,0.0,0.01,0.0,0.0,0.0,0.01,-4.77285051346,2.07528114319,-8.00199890137,0.01,0.0,0.0,0.0,0.01,0.0,0.0,0.0,0.01
1585291171068260687,46189,1585291171067746816,foot_imu_link,0.233782500029,0.160428419709,0.508652091026,-0.812946200371,0.0,0.0,0.0,0.0,0.0,0.0,0.0,0.0,0.0,-0.00313176307827,0.000817603082396,0.00798732787371,0.01,0.0,0.0,0.0,0.01,0.0,0.0,0.0,0.01,-4.75439500809,2.09021425247,-8.0050907135,0.01,0.0,0.0,0.0,0.01,0.0,0.0,0.0,0.01
1585291171083841838,46190,1585291171083180767,foot_imu_link,0.233795821667,0.160405218601,0.508620262146,-0.812966883183,0.0,0.0,0.0,0.0,0.0,0.0,0.0,0.0,0.0,-0.00316457729787,-0.000162709475262,0.00339088588953,0.01,0.0,0.0,0.0,0.01,0.0,0.0,0.0,0.01,-4.75243139267,2.06358242035,-8.0218667984,0.01,0.0,0.0,0.0,0.01,0.0,0.0,0.0,0.01
1585291171120772591,46191,1585291171119771080,foot_imu_link,0.233780384064,0.160392478108,0.508602261543,-0.812985122204,0.0,0.0,0.0,0.0,0.0,0.0,0.0,0.0,0.0,-0.000468032434583,-0.000629879999906,-0.0012976275757,0.01,0.0,0.0,0.0,0.01,0.0,0.0,0.0,0.01,-4.75938987732,2.06225848198,-8.0131072998,0.01,0.0,0.0,0.0,0.01,0.0,0.0,0.0,0.01
1585291171136477551,46192,1585291171135170136,foot_imu_link,0.23377636075,0.160397469997,0.50860786438,-0.812981784344,0.0,0.0,0.0,0.0,0.0,0.0,0.0,0.0,0.0,-0.000329546630383,-0.000278195249848,7.92788341641e-05,0.01,0.0,0.0,0.0,0.01,0.0,0.0,0.0,0.01,-4.76214981079,2.06650590897,-8.03316688538,0.01,0.0,0.0,0.0,0.01,0.0,0.0,0.0,0.01
1585291171152917572,46193,1585291171151777238,foot_imu_link,0.233777165413,0.160397991538,0.508605480194,-0.812982976437,0.0,0.0,0.0,0.0,0.0,0.0,0.0,0.0,0.0,0.000122576020658,-0.00190535676666,-0.000348967500031,0.01,0.0,0.0,0.0,0.01,0.0,0.0,0.0,0.01,-4.77341890335,2.10533428192,-8.02547264099,0.01,0.0,0.0,0.0,0.01,0.0,0.0,0.0,0.01
1585291171168185626,46194,1585291171167519872,foot_imu_link,0.233785569668,0.160395786166,0.508592963219,-0.812988758087,0.0,0.0,0.0,0.0,0.0,0.0,0.0,0.0,0.0,0.0010933354497,-0.00265818322077,0.00183374062181,0.01,0.0,0.0,0.0,0.01,0.0,0.0,0.0,0.01,-4.74145412445,2.08956170082,-8.02067661285,0.01,0.0,0.0,0.0,0.01,0.0,0.0,0.0,0.01
1585291171183416471,46195,1585291171182768562,foot_imu_link,0.23378674686,0.16041263938,0.508571207523,-0.812998712063,0.0,0.0,0.0,0.0,0.0,0.0,0.0,0.0,0.0,0.00201517902315,-0.00287190196104,0.0011089630425,0.01,0.0,0.0,0.0,0.01,0.0,0.0,0.0,0.01,-4.77066850662,2.09516882896,-8.05454444885,0.01,0.0,0.0,0.0,0.01,0.0,0.0,0.0,0.01
1585291171198658369,46196,1585291171198104450,foot_imu_link,0.233776047826,0.160449638963,0.508562982082,-0.812999665737,0.0,0.0,0.0,0.0,0.0,0.0,0.0,0.0,0.0,0.00387128442526,-0.00472538452595,-0.00133644021116,0.01,0.0,0.0,0.0,0.01,0.0,0.0,0.0,0.01,-4.74418783188,2.07060694695,-8.0302324295,0.01,0.0,0.0,0.0,0.01,0.0,0.0,0.0,0.01
1585291171220543538,46197,1585291171219618560,foot_imu_link,0.23375338316,0.160527214408,0.508538544178,-0.813006162643,0.0,0.0,0.0,0.0,0.0,0.0,0.0,0.0,0.0,0.00667229294777,-0.00374646810815,0.000291448552161,0.01,0.0,0.0,0.0,0.01,0.0,0.0,0.0,0.01,-4.76112174988,2.07995724678,-8.01009368896,0.01,0.0,0.0,0.0,0.01,0.0,0.0,0.0,0.01
1585291171236040330,46198,1585291171235134208,foot_imu_link,0.233735695481,0.160606205463,0.508525848389,-0.813003599644,0.0,0.0,0.0,0.0,0.0,0.0,0.0,0.0,0.0,0.0109561122954,-0.0068806479685,-0.00288825575262,0.01,0.0,0.0,0.0,0.01,0.0,0.0,0.0,0.01,-4.75856304169,2.08327484131,-7.99416923523,0.01,0.0,0.0,0.0,0.01,0.0,0.0,0.0,0.01
1585291171250947560,46199,1585291171250052279,foot_imu_link,0.233683079481,0.160704761744,0.508527219296,-0.812998354435,0.0,0.0,0.0,0.0,0.0,0.0,0.0,0.0,0.0,0.0119849853218,-0.00749763287604,-0.00339550245553,0.01,0.0,0.0,0.0,0.01,0.0,0.0,0.0,0.01,-4.77318191528,2.08375239372,-8.02726173401,0.01,0.0,0.0,0.0,0.01,0.0,0.0,0.0,0.01
1585291171268507909,46200,1585291171266633603,foot_imu_link,0.233631759882,0.160805389285,0.50851559639,-0.813000440598,0.0,0.0,0.0,0.0,0.0,0.0,0.0,0.0,0.0,0.0127095915377,-0.00847936142236,-0.00423459801823,0.01,0.0,0.0,0.0,0.01,0.0,0.0,0.0,0.01,-4.77082443237,2.07258939743,-8.01804733276,0.01,0.0,0.0,0.0,0.01,0.0,0.0,0.0,0.01
1585291171283674747,46201,1585291171282906853,foot_imu_link,0.23351803422,0.161003321409,0.508502066135,-0.813002467155,0.0,0.0,0.0,0.0,0.0,0.0,0.0,0.0,0.0,0.0319289006293,-0.0151179917157,-0.00705234380439,0.01,0.0,0.0,0.0,0.01,0.0,0.0,0.0,0.01,-4.86028575897,2.02292299271,-7.90174102783,0.01,0.0,0.0,0.0,0.01,0.0,0.0,0.0,0.01
1585291171298530888,46202,1585291171297818660,foot_imu_link,0.233468413353,0.161080509424,0.508493006229,-0.813007056713,0.0,0.0,0.0,0.0,0.0,0.0,0.0,0.0,0.0,0.00922550447285,-0.00419533764943,-0.00229283468798,0.01,0.0,0.0,0.0,0.01,0.0,0.0,0.0,0.01,-4.7801117897,2.06918859482,-8.06268215179,0.01,0.0,0.0,0.0,0.01,0.0,0.0,0.0,0.01
1585291171337099325,46203,1585291171334902383,foot_imu_link,0.23343360424,0.161145061255,0.508499622345,-0.813000142574,0.0,0.0,0.0,0.0,0.0,0.0,0.0,0.0,0.0,0.00190771836787,-0.00103140308056,-0.000740139745176,0.01,0.0,0.0,0.0,0.01,0.0,0.0,0.0,0.01,-4.78374147415,2.057700634,-8.04324054718,0.01,0.0,0.0,0.0,0.01,0.0,0.0,0.0,0.01
1585291171351446290,46204,1585291171349820314,foot_imu_link,0.233437389135,0.161137506366,0.508497476578,-0.813001871109,0.0,0.0,0.0,0.0,0.0,0.0,0.0,0.0,0.0,-0.00269932392985,0.00218263221905,0.000788055360317,0.01,0.0,0.0,0.0,0.01,0.0,0.0,0.0,0.01,-4.78393030167,2.05081748962,-8.04599761963,0.01,0.0,0.0,0.0,0.01,0.0,0.0,0.0,0.01
1585291171367453847,46205,1585291171366495561,foot_imu_link,0.233452320099,0.161129504442,0.508499801159,-0.812997758389,0.0,0.0,0.0,0.0,0.0,0.0,0.0,0.0,0.0,-0.00242684409022,-0.00240734778345,-0.000208821613342,0.01,0.0,0.0,0.0,0.01,0.0,0.0,0.0,0.01,-4.76262140274,2.09320020676,-7.99398994446,0.01,0.0,0.0,0.0,0.01,0.0,0.0,0.0,0.01
1585291171383865173,46206,1585291171382706732,foot_imu_link,0.233480811119,0.161094501615,0.508515357971,-0.812986731529,0.0,0.0,0.0,0.0,0.0,0.0,0.0,0.0,0.0,-0.00692917592824,0.0017261338653,0.000140647869557,0.01,0.0,0.0,0.0,0.01,0.0,0.0,0.0,0.01,-4.76159763336,2.08047389984,-8.01027107239,0.01,0.0,0.0,0.0,0.01,0.0,0.0,0.0,0.01
1585291171398157359,46207,1585291171397609318,foot_imu_link,0.233504787087,0.161061137915,0.508537471294,-0.812972605228,0.0,0.0,0.0,0.0,0.0,0.0,0.0,0.0,0.0,-0.00495934206992,0.00247062160634,-0.00129786320031,0.01,0.0,0.0,0.0,0.01,0.0,0.0,0.0,0.01,-4.7804851532,2.06076431274,-8.00778388977,0.01,0.0,0.0,0.0,0.01,0.0,0.0,0.0,0.01
1585291171414266145,46208,1585291171413096108,foot_imu_link,0.233525156975,0.161024168134,0.508549034595,-0.812966942787,0.0,0.0,0.0,0.0,0.0,0.0,0.0,0.0,0.0,-0.00418685935438,0.0039490563795,-0.00102432514541,0.01,0.0,0.0,0.0,0.01,0.0,0.0,0.0,0.01,-4.73536062241,2.07352161407,-8.04652404785,0.01,0.0,0.0,0.0,0.01,0.0,0.0,0.0,0.01
1585291171435254285,46209,1585291171434562215,foot_imu_link,0.233535349369,0.161018490791,0.508552670479,-0.812962830067,0.0,0.0,0.0,0.0,0.0,0.0,0.0,0.0,0.0,-0.000286450609565,-0.000954799121246,-0.000470014754683,0.01,0.0,0.0,0.0,0.01,0.0,0.0,0.0,0.01,-4.76657676697,2.06174468994,-8.03649902344,0.01,0.0,0.0,0.0,0.01,0.0,0.0,0.0,0.01
1585291171450622181,46210,1585291171449787932,foot_imu_link,0.233541741967,0.16101667285,0.50854575634,-0.81296569109,0.0,0.0,0.0,0.0,0.0,0.0,0.0,0.0,0.0,-0.00163378566504,-0.000269363983534,0.000772994011641,0.01,0.0,0.0,0.0,0.01,0.0,0.0,0.0,0.01,-4.74591827393,2.08904457092,-8.02803325653,0.01,0.0,0.0,0.0,0.01,0.0,0.0,0.0,0.01
1585291171466752556,46211,1585291171465074835,foot_imu_link,0.233550816774,0.161011353135,0.508531153202,-0.81297326088,0.0,0.0,0.0,0.0,0.0,0.0,0.0,0.0,0.0,-0.00136639922857,-0.000635644013528,0.00287488708273,0.01,0.0,0.0,0.0,0.01,0.0,0.0,0.0,0.01,-4.75166130066,2.06122350693,-7.97663593292,0.01,0.0,0.0,0.0,0.01,0.0,0.0,0.0,0.01
1585291171483797089,46212,1585291171481554955,foot_imu_link,0.233560204506,0.161002591252,0.508517026901,-0.812981069088,0.0,0.0,0.0,0.0,0.0,0.0,0.0,0.0,0.0,-0.00136894360185,0.000251492136158,0.00142419245094,0.01,0.0,0.0,0.0,0.01,0.0,0.0,0.0,0.01,-4.77417182922,2.05232405663,-8.00049972534,0.01,0.0,0.0,0.0,0.01,0.0,0.0,0.0,0.01
1585291171498946583,46213,1585291171497691876,foot_imu_link,0.233560830355,0.160990402102,0.508530974388,-0.812974572182,0.0,0.0,0.0,0.0,0.0,0.0,0.0,0.0,0.0,0.00296869594604,-0.000930564361624,-0.000441236887127,0.01,0.0,0.0,0.0,0.01,0.0,0.0,0.0,0.01,-4.76062059402,2.08514666557,-7.97830724716,0.01,0.0,0.0,0.0,0.01,0.0,0.0,0.0,0.01
1585291171513425111,46214,1585291171512856557,foot_imu_link,0.233548671007,0.161026358604,0.508525669575,-0.812974333763,0.0,0.0,0.0,0.0,0.0,0.0,0.0,0.0,0.0,0.00358135998249,-0.00281661958434,-0.00110716209747,0.01,0.0,0.0,0.0,0.01,0.0,0.0,0.0,0.01,-4.76950120926,2.05787706375,-8.01691246033,0.01,0.0,0.0,0.0,0.01,0.0,0.0,0.0,0.01
1585291171520438475,46215,1585291171520001277,foot_imu_link,0.233537971973,0.16105927527,0.508516073227,-0.812976837158,0.0,0.0,0.0,0.0,0.0,0.0,0.0,0.0,0.0,0.00463409442455,-0.00452984590083,-0.00174880865961,0.01,0.0,0.0,0.0,0.01,0.0,0.0,0.0,0.01,-4.76724052429,2.05985975266,-8.01479625702,0.01,0.0,0.0,0.0,0.01,0.0,0.0,0.0,0.01
1585291171550005873,46216,1585291171549440801,foot_imu_link,0.233537361026,0.161170318723,0.50850379467,-0.812962770462,0.0,0.0,0.0,0.0,0.0,0.0,0.0,0.0,0.0,0.00493309646845,-0.00912123825401,-0.00252175354399,0.01,0.0,0.0,0.0,0.01,0.0,0.0,0.0,0.01,-4.75109291077,2.06410074234,-7.9997215271,0.01,0.0,0.0,0.0,0.01,0.0,0.0,0.0,0.01
1585291171566140789,46217,1585291171564793621,foot_imu_link,0.233534649014,0.161252960563,0.508496403694,-0.812951743603,0.0,0.0,0.0,0.0,0.0,0.0,0.0,0.0,0.0,0.00551453791559,-0.0101931132376,-0.0022810511291,0.01,0.0,0.0,0.0,0.01,0.0,0.0,0.0,0.01,-4.75630760193,2.09716582298,-8.00102710724,0.01,0.0,0.0,0.0,0.01,0.0,0.0,0.0,0.01
1585291171582021661,46218,1585291171581404795,foot_imu_link,0.233545288444,0.161325886846,0.508488595486,-0.812939107418,0.0,0.0,0.0,0.0,0.0,0.0,0.0,0.0,0.0,0.00318449083716,-0.00873954035342,-0.00116426567547,0.01,0.0,0.0,0.0,0.01,0.0,0.0,0.0,0.01,-4.74623394012,2.07939863205,-7.99730634689,0.01,0.0,0.0,0.0,0.01,0.0,0.0,0.0,0.01
1585291171598524379,46219,1585291171597386765,foot_imu_link,0.233595401049,0.161455512047,0.508465707302,-0.812913298607,0.0,0.0,0.0,0.0,0.0,0.0,0.0,0.0,0.0,-0.000289248302579,-0.023847732693,-0.00132412556559,0.01,0.0,0.0,0.0,0.01,0.0,0.0,0.0,0.01,-4.73505973816,2.03053975105,-8.05686950684,0.01,0.0,0.0,0.0,0.01,0.0,0.0,0.0,0.01
1585291171613676210,46220,1585291171612627553,foot_imu_link,0.23362262547,0.161535993218,0.508464157581,-0.812890470028,0.0,0.0,0.0,0.0,0.0,0.0,0.0,0.0,0.0,0.00140112545341,-0.00417671818286,-0.00378185044974,0.01,0.0,0.0,0.0,0.01,0.0,0.0,0.0,0.01,-4.85537052155,2.00957751274,-8.05093002319,0.01,0.0,0.0,0.0,0.01,0.0,0.0,0.0,0.01
1585291171628668802,46221,1585291171628060181,foot_imu_link,0.233636409044,0.161613166332,0.508464992046,-0.812870621681,0.0,0.0,0.0,0.0,0.0,0.0,0.0,0.0,0.0,0.00120655074716,-0.0122197745368,-0.00383101543412,0.01,0.0,0.0,0.0,0.01,0.0,0.0,0.0,0.01,-4.69481992722,2.05330944061,-8.02317619324,0.01,0.0,0.0,0.0,0.01,0.0,0.0,0.0,0.01
1585291171650112481,46222,1585291171649359406,foot_imu_link,0.233650073409,0.161680430174,0.508489370346,-0.812837958336,0.0,0.0,0.0,0.0,0.0,0.0,0.0,0.0,0.0,-0.00123369228095,-0.0028171793092,-0.00626258878037,0.01,0.0,0.0,0.0,0.01,0.0,0.0,0.0,0.01,-4.78107976913,2.03555178642,-8.05673408508,0.01,0.0,0.0,0.0,0.01,0.0,0.0,0.0,0.01
1585291171665057160,46223,1585291171664459603,foot_imu_link,0.233669012785,0.161684423685,0.508523464203,-0.812810480595,0.0,0.0,0.0,0.0,0.0,0.0,0.0,0.0,0.0,-0.00271388608962,0.00132590171415,-0.00387280876748,0.01,0.0,0.0,0.0,0.01,0.0,0.0,0.0,0.01,-4.78197431564,2.04110980034,-8.03748512268,0.01,0.0,0.0,0.0,0.01,0.0,0.0,0.0,0.01
1585291171680994162,46224,1585291171679634433,foot_imu_link,0.233696550131,0.161666348577,0.508552789688,-0.81278783083,0.0,0.0,0.0,0.0,0.0,0.0,0.0,0.0,0.0,-0.00619940087199,0.00215282873251,-0.00307014188729,0.01,0.0,0.0,0.0,0.01,0.0,0.0,0.0,0.01,-4.82475805283,2.06111836433,-8.02056026459,0.01,0.0,0.0,0.0,0.01,0.0,0.0,0.0,0.01
1585291171696753155,46225,1585291171696270521,foot_imu_link,0.233727023005,0.161637291312,0.508567273617,-0.812775790691,0.0,0.0,0.0,0.0,0.0,0.0,0.0,0.0,0.0,-0.006387764588,0.00181610358413,-0.00145218614489,0.01,0.0,0.0,0.0,0.01,0.0,0.0,0.0,0.01,-4.7894821167,2.08237218857,-8.02160644531,0.01,0.0,0.0,0.0,0.01,0.0,0.0,0.0,0.01
1585291171713013929,46226,1585291171712403185,foot_imu_link,0.233748912811,0.161615967751,0.508583664894,-0.81276345253,0.0,0.0,0.0,0.0,0.0,0.0,0.0,0.0,0.0,-0.00364043284208,0.00105135259219,-0.00196157023311,0.01,0.0,0.0,0.0,0.01,0.0,0.0,0.0,0.01,-4.79689073563,2.05851745605,-8.00033760071,0.01,0.0,0.0,0.0,0.01,0.0,0.0,0.0,0.01
1585291171728931289,46227,1585291171727434889,foot_imu_link,0.233762815595,0.161605402827,0.50860440731,-0.812748551369,0.0,0.0,0.0,0.0,0.0,0.0,0.0,0.0,0.0,-0.00219904445112,-0.000231323792832,-0.00236957753077,0.01,0.0,0.0,0.0,0.01,0.0,0.0,0.0,0.01,-4.77049160004,2.06993055344,-8.00264549255,0.01,0.0,0.0,0.0,0.01,0.0,0.0,0.0,0.01
1585291171743491132,46228,1585291171742858002,foot_imu_link,0.233776077628,0.161597251892,0.508618533611,-0.812737584114,0.0,0.0,0.0,0.0,0.0,0.0,0.0,0.0,0.0,-0.00327252410352,0.000746511621401,-0.00211652810685,0.01,0.0,0.0,0.0,0.01,0.0,0.0,0.0,0.01,-4.81014442444,2.07300710678,-8.00673866272,0.01,0.0,0.0,0.0,0.01,0.0,0.0,0.0,0.01
1585291171765224721,46229,1585291171764555732,foot_imu_link,0.233790844679,0.16158002615,0.508634209633,-0.812726914883,0.0,0.0,0.0,0.0,0.0,0.0,0.0,0.0,0.0,-0.00254254508764,0.00190865073819,-0.00172645715065,0.01,0.0,0.0,0.0,0.01,0.0,0.0,0.0,0.01,-4.80827093124,2.06494951248,-8.00568008423,0.01,0.0,0.0,0.0,0.01,0.0,0.0,0.0,0.01
1585291171780011034,46230,1585291171779447306,foot_imu_link,0.23380830884,0.161546453834,0.508650541306,-0.812718272209,0.0,0.0,0.0,0.0,0.0,0.0,0.0,0.0,0.0,-0.0034545995295,0.00281543680467,0.000194443855435,0.01,0.0,0.0,0.0,0.01,0.0,0.0,0.0,0.01,-4.77021455765,2.02371788025,-8.01595783234,0.01,0.0,0.0,0.0,0.01,0.0,0.0,0.0,0.01
1585291171796973474,46231,1585291171796127419,foot_imu_link,0.233811601996,0.161527335644,0.50866407156,-0.812712728977,0.0,0.0,0.0,0.0,0.0,0.0,0.0,0.0,0.0,-0.000875796191394,0.000835867191199,-0.00125880516134,0.01,0.0,0.0,0.0,0.01,0.0,0.0,0.0,0.01,-4.76602506638,2.06933045387,-8.01042175293,0.01,0.0,0.0,0.0,0.01,0.0,0.0,0.0,0.01
1585291171812654313,46232,1585291171812020600,foot_imu_link,0.233795061707,0.161521658301,0.50867587328,-0.812711238861,0.0,0.0,0.0,0.0,0.0,0.0,0.0,0.0,0.0,0.00117198191583,0.00213934294879,-0.00104813813232,0.01,0.0,0.0,0.0,0.01,0.0,0.0,0.0,0.01,-4.75612258911,2.04804801941,-8.03675079346,0.01,0.0,0.0,0.0,0.01,0.0,0.0,0.0,0.01
1585291171827693513,46233,1585291171827192071,foot_imu_link,0.233767271042,0.16152793169,0.508686959743,-0.812711000443,0.0,0.0,0.0,0.0,0.0,0.0,0.0,0.0,0.0,0.00326468981802,0.0018785095308,-0.00198530312628,0.01,0.0,0.0,0.0,0.01,0.0,0.0,0.0,0.01,-4.7911067009,2.05012798309,-8.02602767944,0.01,0.0,0.0,0.0,0.01,0.0,0.0,0.0,0.01
1585291171843579952,46234,1585291171842746969,foot_imu_link,0.23373913765,0.16153255105,0.508696913719,-0.812712013721,0.0,0.0,0.0,0.0,0.0,0.0,0.0,0.0,0.0,0.00235889106989,0.0013029591646,-0.00198545004241,0.01,0.0,0.0,0.0,0.01,0.0,0.0,0.0,0.01,-4.80092954636,2.0785214901,-7.98565673828,0.01,0.0,0.0,0.0,0.01,0.0,0.0,0.0,0.01
1585291171864850913,46235,1585291171864314174,foot_imu_link,0.233702629805,0.161522448063,0.508721709251,-0.812708973885,0.0,0.0,0.0,0.0,0.0,0.0,0.0,0.0,0.0,0.0020516468212,0.00334623036906,-0.00365538010374,0.01,0.0,0.0,0.0,0.01,0.0,0.0,0.0,0.01,-4.77495193481,2.05948972702,-8.00520038605,0.01,0.0,0.0,0.0,0.01,0.0,0.0,0.0,0.01
1585291171880169800,46236,1585291171879527991,foot_imu_link,0.233675673604,0.161528259516,0.50873696804,-0.812705993652,0.0,0.0,0.0,0.0,0.0,0.0,0.0,0.0,0.0,0.00357370264828,0.000820209330413,-0.00291521800682,0.01,0.0,0.0,0.0,0.01,0.0,0.0,0.0,0.01,-4.78723526001,2.07397794724,-8.01752281189,0.01,0.0,0.0,0.0,0.01,0.0,0.0,0.0,0.01
1585291171895547574,46237,1585291171894809711,foot_imu_link,0.233637154102,0.161544159055,0.508753955364,-0.812703251839,0.0,0.0,0.0,0.0,0.0,0.0,0.0,0.0,0.0,0.00480160210282,0.000351549882907,-0.00443939911202,0.01,0.0,0.0,0.0,0.01,0.0,0.0,0.0,0.01,-4.78135633469,2.07501459122,-7.99230575562,0.01,0.0,0.0,0.0,0.01,0.0,0.0,0.0,0.01
1585291171911881219,46238,1585291171911331567,foot_imu_link,0.233593702316,0.161583527923,0.508761167526,-0.812703430653,0.0,0.0,0.0,0.0,0.0,0.0,0.0,0.0,0.0,0.00748820602894,-0.00154712400399,-0.00514898914844,0.01,0.0,0.0,0.0,0.01,0.0,0.0,0.0,0.01,-4.76167583466,2.05531311035,-8.02661705017,0.01,0.0,0.0,0.0,0.01,0.0,0.0,0.0,0.01
1585291171927734428,46239,1585291171927180026,foot_imu_link,0.233515202999,0.16166074574,0.508777320385,-0.812700510025,0.0,0.0,0.0,0.0,0.0,0.0,0.0,0.0,0.0,0.0102992765605,-0.003879184369,-0.00746212666854,0.01,0.0,0.0,0.0,0.01,0.0,0.0,0.0,0.01,-4.72424316406,2.13239526749,-8.00045013428,0.01,0.0,0.0,0.0,0.01,0.0,0.0,0.0,0.01
1585291171942726099,46240,1585291171942197173,foot_imu_link,0.233477592468,0.161715522408,0.508784890175,-0.812695682049,0.0,0.0,0.0,0.0,0.0,0.0,0.0,0.0,0.0,0.00538329966366,-0.00288984877989,-0.00184946251102,0.01,0.0,0.0,0.0,0.01,0.0,0.0,0.0,0.01,-4.80593490601,1.97756361961,-8.06007194519,0.01,0.0,0.0,0.0,0.01,0.0,0.0,0.0,0.01
1585291171958760296,46241,1585291171957512233,foot_imu_link,0.233457610011,0.161752507091,0.508773505688,-0.812701165676,0.0,0.0,0.0,0.0,0.0,0.0,0.0,0.0,0.0,0.0060335053131,-0.000997842638753,-0.000872858799994,0.01,0.0,0.0,0.0,0.01,0.0,0.0,0.0,0.01,-4.78577709198,2.08330440521,-8.00752258301,0.01,0.0,0.0,0.0,0.01,0.0,0.0,0.0,0.01
1585291171979944654,46242,1585291171979167378,foot_imu_link,0.233418121934,0.161772474647,0.508765876293,-0.812713325024,0.0,0.0,0.0,0.0,0.0,0.0,0.0,0.0,0.0,0.00279854051769,-0.00403654109687,0.00123697472736,0.01,0.0,0.0,0.0,0.01,0.0,0.0,0.0,0.01,-4.76640510559,2.05662965775,-7.99121570587,0.01,0.0,0.0,0.0,0.01,0.0,0.0,0.0,0.01
1585291171995320157,46243,1585291171994451271,foot_imu_link,0.233408510685,0.161778464913,0.508753120899,-0.812722861767,0.0,0.0,0.0,0.0,0.0,0.0,0.0,0.0,0.0,0.00166152790189,-0.000877491489518,0.00129674002528,0.01,0.0,0.0,0.0,0.01,0.0,0.0,0.0,0.01,-4.7769947052,2.04005360603,-8.00650215149,0.01,0.0,0.0,0.0,0.01,0.0,0.0,0.0,0.01
1585291172012017531,46244,1585291172011136903,foot_imu_link,0.233394339681,0.161792099476,0.508743286133,-0.812730371952,0.0,0.0,0.0,0.0,0.0,0.0,0.0,0.0,0.0,0.00161483418196,-0.00282372627407,-0.000488687772304,0.01,0.0,0.0,0.0,0.01,0.0,0.0,0.0,0.01,-4.70826530457,2.04939556122,-8.00866603851,0.01,0.0,0.0,0.0,0.01,0.0,0.0,0.0,0.01
1585291172044099500,46245,1585291172042321290,foot_imu_link,0.233430370688,0.161842852831,0.50872117281,-0.812723755836,0.0,0.0,0.0,0.0,0.0,0.0,0.0,0.0,0.0,-0.00059172231704,-0.00334589765407,0.00103359529749,0.01,0.0,0.0,0.0,0.01,0.0,0.0,0.0,0.01,-4.78052616119,2.04338812828,-8.0024394989,0.01,0.0,0.0,0.0,0.01,0.0,0.0,0.0,0.01
1585291172057832222,46246,1585291172057360385,foot_imu_link,0.233453661203,0.161856085062,0.50870859623,-0.812722325325,0.0,0.0,0.0,0.0,0.0,0.0,0.0,0.0,0.0,-0.00224148202688,-0.00302120344713,0.000918291509151,0.01,0.0,0.0,0.0,0.01,0.0,0.0,0.0,0.01,-4.79083347321,2.05952429771,-8.0141954422,0.01,0.0,0.0,0.0,0.01,0.0,0.0,0.0,0.01
1585291172080283262,46247,1585291172079130052,foot_imu_link,0.233479052782,0.161868214607,0.50868678093,-0.812726259232,0.0,0.0,0.0,0.0,0.0,0.0,0.0,0.0,0.0,-0.00178292300552,-0.000771232997067,-0.000445917714387,0.01,0.0,0.0,0.0,0.01,0.0,0.0,0.0,0.01,-4.80843830109,2.07397460938,-8.04274368286,0.01,0.0,0.0,0.0,0.01,0.0,0.0,0.0,0.01
1585291172094766522,46248,1585291172094243802,foot_imu_link,0.233493044972,0.161863297224,0.508687496185,-0.812722802162,0.0,0.0,0.0,0.0,0.0,0.0,0.0,0.0,0.0,-0.00189082976431,0.00126746471506,-0.002925186418,0.01,0.0,0.0,0.0,0.01,0.0,0.0,0.0,0.01,-4.78416061401,2.05673551559,-8.01770782471,0.01,0.0,0.0,0.0,0.01,0.0,0.0,0.0,0.01
1585291172109973260,46249,1585291172109372681,foot_imu_link,0.233508706093,0.161861032248,0.508689105511,-0.812717735767,0.0,0.0,0.0,0.0,0.0,0.0,0.0,0.0,0.0,-0.00297815352678,-0.00109268038068,0.00105661619455,0.01,0.0,0.0,0.0,0.01,0.0,0.0,0.0,0.01,-4.77997684479,2.04354524612,-8.01622009277,0.01,0.0,0.0,0.0,0.01,0.0,0.0,0.0,0.01
1585291172126742799,46250,1585291172126114793,foot_imu_link,0.233529642224,0.161843717098,0.50867575407,-0.812723577023,0.0,0.0,0.0,0.0,0.0,0.0,0.0,0.0,0.0,-0.00381048116833,4.18149284087e-05,0.00303921895102,0.01,0.0,0.0,0.0,0.01,0.0,0.0,0.0,0.01,-4.79248046875,2.08071017265,-8.01677799225,0.01,0.0,0.0,0.0,0.01,0.0,0.0,0.0,0.01
1585291172142473574,46251,1585291172141812781,foot_imu_link,0.233554959297,0.161802306771,0.508655965328,-0.812736868858,0.0,0.0,0.0,0.0,0.0,0.0,0.0,0.0,0.0,-0.00478337332606,0.00155059504323,0.00276238378137,0.01,0.0,0.0,0.0,0.01,0.0,0.0,0.0,0.01,-4.798807621,2.07582712173,-8.02637672424,0.01,0.0,0.0,0.0,0.01,0.0,0.0,0.0,0.01
1585291172157486180,46252,1585291172156938708,foot_imu_link,0.233579084277,0.161762088537,0.508637785912,-0.812749326229,0.0,0.0,0.0,0.0,0.0,0.0,0.0,0.0,0.0,-0.0063103903085,0.00173312157858,0.00390849309042,0.01,0.0,0.0,0.0,0.01,0.0,0.0,0.0,0.01,-4.7745218277,2.09621119499,-8.02127838135,0.01,0.0,0.0,0.0,0.01,0.0,0.0,0.0,0.01
1585291172172909561,46253,1585291172172328823,foot_imu_link,0.233613908291,0.16170860827,0.508637070656,-0.812750399113,0.0,0.0,0.0,0.0,0.0,0.0,0.0,0.0,0.0,-0.00613498780876,0.00345884589478,0.00264254212379,0.01,0.0,0.0,0.0,0.01,0.0,0.0,0.0,0.01,-4.77614355087,2.06632685661,-8.01533985138,0.01,0.0,0.0,0.0,0.01,0.0,0.0,0.0,0.01
1585291172195370261,46254,1585291172194183570,foot_imu_link,0.233635768294,0.161663278937,0.508645713329,-0.812747776508,0.0,0.0,0.0,0.0,0.0,0.0,0.0,0.0,0.0,-0.0018944516778,0.00134691747371,2.655480057e-05,0.01,0.0,0.0,0.0,0.01,0.0,0.0,0.0,0.01,-4.75232744217,2.0775346756,-8.04255867004,0.01,0.0,0.0,0.0,0.01,0.0,0.0,0.0,0.01
1585291172209812945,46255,1585291172209290773,foot_imu_link,0.233630791306,0.161658108234,0.508651316166,-0.812746703625,0.0,0.0,0.0,0.0,0.0,0.0,0.0,0.0,0.0,0.000742649659514,-0.000307587557472,2.89175659418e-06,0.01,0.0,0.0,0.0,0.01,0.0,0.0,0.0,0.01,-4.74940681458,2.0686674118,-8.01651954651,0.01,0.0,0.0,0.0,0.01,0.0,0.0,0.0,0.01
1585291172226897890,46256,1585291172226074775,foot_imu_link,0.233637616038,0.161664143205,0.508651733398,-0.81274330616,0.0,0.0,0.0,0.0,0.0,0.0,0.0,0.0,0.0,-0.0022953376174,-0.00180866464507,-5.45210205019e-05,0.01,0.0,0.0,0.0,0.01,0.0,0.0,0.0,0.01,-4.78234052658,2.059715271,-8.01634311676,0.01,0.0,0.0,0.0,0.01,0.0,0.0,0.0,0.01
1585291172257416144,46257,1585291172256904409,foot_imu_link,0.233697116375,0.161703184247,0.508612513542,-0.812743008137,0.0,0.0,0.0,0.0,0.0,0.0,0.0,0.0,0.0,-0.00189005304128,-0.00365845533088,0.000682544894516,0.01,0.0,0.0,0.0,0.01,0.0,0.0,0.0,0.01,-4.79687595367,2.0403342247,-8.02586936951,0.01,0.0,0.0,0.0,0.01,0.0,0.0,0.0,0.01
1585291172272837387,46258,1585291172272068200,foot_imu_link,0.233721956611,0.161715105176,0.508605122566,-0.812738060951,0.0,0.0,0.0,0.0,0.0,0.0,0.0,0.0,0.0,-0.00298545602709,-0.00337428692728,0.00174526404589,0.01,0.0,0.0,0.0,0.01,0.0,0.0,0.0,0.01,-4.77262973785,2.04151844978,-7.98769140244,0.01,0.0,0.0,0.0,0.01,0.0,0.0,0.0,0.01
1585291172295388096,46259,1585291172293991045,foot_imu_link,0.233759298921,0.161740019917,0.508570253849,-0.81274420023,0.0,0.0,0.0,0.0,0.0,0.0,0.0,0.0,0.0,-0.000206807628274,-0.00322517496534,0.00151627371088,0.01,0.0,0.0,0.0,0.01,0.0,0.0,0.0,0.01,-4.78312683105,2.07692623138,-8.04915714264,0.01,0.0,0.0,0.0,0.01,0.0,0.0,0.0,0.01
1585291172309745652,46260,1585291172309067415,foot_imu_link,0.233784660697,0.161766991019,0.508547842503,-0.812745511532,0.0,0.0,0.0,0.0,0.0,0.0,0.0,0.0,0.0,1.49589031935e-05,-0.00540139013901,0.00115584535524,0.01,0.0,0.0,0.0,0.01,0.0,0.0,0.0,0.01,-4.78223896027,2.06630444527,-8.00615882874,0.01,0.0,0.0,0.0,0.01,0.0,0.0,0.0,0.01
1585291172325180223,46261,1585291172324399037,foot_imu_link,0.233806177974,0.161805778742,0.508526146412,-0.812745153904,0.0,0.0,0.0,0.0,0.0,0.0,0.0,0.0,0.0,0.00159695371985,-0.00724552199244,-0.00161192985252,0.01,0.0,0.0,0.0,0.01,0.0,0.0,0.0,0.01,-4.77908992767,2.0877623558,-8.03534126282,0.01,0.0,0.0,0.0,0.01,0.0,0.0,0.0,0.01
1585291172341679510,46262,1585291172341123794,foot_imu_link,0.233815565705,0.161862552166,0.508512198925,-0.8127399683,0.0,0.0,0.0,0.0,0.0,0.0,0.0,0.0,0.0,0.00327054597437,-0.0075985272415,-0.00212455820292,0.01,0.0,0.0,0.0,0.01,0.0,0.0,0.0,0.01,-4.78845214844,2.06591153145,-8.0075302124,0.01,0.0,0.0,0.0,0.01,0.0,0.0,0.0,0.01
1585291172357288778,46263,1585291172356749446,foot_imu_link,0.23384039104,0.161943674088,0.508528113365,-0.812706649303,0.0,0.0,0.0,0.0,0.0,0.0,0.0,0.0,0.0,0.0026392871514,-0.0108723165467,-0.00396702578291,0.01,0.0,0.0,0.0,0.01,0.0,0.0,0.0,0.01,-4.77103042603,2.06194496155,-8.03316307068,0.01,0.0,0.0,0.0,0.01,0.0,0.0,0.0,0.01
1585291172372389506,46264,1585291172371875873,foot_imu_link,0.233850896358,0.162018060684,0.508518218994,-0.812694907188,0.0,0.0,0.0,0.0,0.0,0.0,0.0,0.0,0.0,0.0019767973572,-0.00974445510656,-0.00379020161927,0.01,0.0,0.0,0.0,0.01,0.0,0.0,0.0,0.01,-4.7456870079,2.04839944839,-8.00596046448,0.01,0.0,0.0,0.0,0.01,0.0,0.0,0.0,0.01
1585291172387797383,46265,1585291172387286737,foot_imu_link,0.233875915408,0.162111356854,0.508509755135,-0.8126745224,0.0,0.0,0.0,0.0,0.0,0.0,0.0,0.0,0.0,0.00245884247124,-0.0120414169505,-0.00276573351584,0.01,0.0,0.0,0.0,0.01,0.0,0.0,0.0,0.01,-4.74581289291,2.05581998825,-7.99774646759,0.01,0.0,0.0,0.0,0.01,0.0,0.0,0.0,0.01
1585291172410527228,46266,1585291172408844835,foot_imu_link,0.233907788992,0.162185758352,0.508517026901,-0.812645971775,0.0,0.0,0.0,0.0,0.0,0.0,0.0,0.0,0.0,0.00114936754107,-0.00584188383073,-0.00421066675335,0.01,0.0,0.0,0.0,0.01,0.0,0.0,0.0,0.01,-4.78434944153,2.04694104195,-8.06167411804,0.01,0.0,0.0,0.0,0.01,0.0,0.0,0.0,0.01
1585291172425254435,46267,1585291172424224540,foot_imu_link,0.233928158879,0.162257626653,0.508509993553,-0.812630176544,0.0,0.0,0.0,0.0,0.0,0.0,0.0,0.0,0.0,0.00176411215216,-0.0109481904656,-0.00176038732752,0.01,0.0,0.0,0.0,0.01,0.0,0.0,0.0,0.01,-4.72435569763,2.07713317871,-7.99131298065,0.01,0.0,0.0,0.0,0.01,0.0,0.0,0.0,0.01
1585291172442555101,46268,1585291172440717450,foot_imu_link,0.233941763639,0.162334352732,0.508516252041,-0.812606871128,0.0,0.0,0.0,0.0,0.0,0.0,0.0,0.0,0.0,0.00328237190843,-0.00555936200544,-0.00511122075841,0.01,0.0,0.0,0.0,0.01,0.0,0.0,0.0,0.01,-4.79562664032,2.04959821701,-8.0028629303,0.01,0.0,0.0,0.0,0.01,0.0,0.0,0.0,0.01
1585291172472566633,46269,1585291172472050200,foot_imu_link,0.233936056495,0.162460416555,0.5085683465,-0.812550842762,0.0,0.0,0.0,0.0,0.0,0.0,0.0,0.0,0.0,0.000331735238433,-0.00246311048977,-0.0069528631866,0.01,0.0,0.0,0.0,0.01,0.0,0.0,0.0,0.01,-4.79455661774,2.07448816299,-8.00860023499,0.01,0.0,0.0,0.0,0.01,0.0,0.0,0.0,0.01
1585291172487314162,46270,1585291172486816676,foot_imu_link,0.233945608139,0.162475317717,0.508588016033,-0.812532782555,0.0,0.0,0.0,0.0,0.0,0.0,0.0,0.0,0.0,-0.00281918607652,-0.00205801893026,-0.00402914639562,0.01,0.0,0.0,0.0,0.01,0.0,0.0,0.0,0.01,-4.82302188873,2.03759765625,-8.03661155701,0.01,0.0,0.0,0.0,0.01,0.0,0.0,0.0,0.01
1585291172524563357,46271,1585291172523940191,foot_imu_link,0.233989030123,0.162581965327,0.508594274521,-0.81249499321,0.0,0.0,0.0,0.0,0.0,0.0,0.0,0.0,0.0,0.00153621286154,-0.00856531783938,-0.00284248008393,0.01,0.0,0.0,0.0,0.01,0.0,0.0,0.0,0.01,-4.82229423523,2.04415798187,-8.02310752869,0.01,0.0,0.0,0.0,0.01,0.0,0.0,0.0,0.01
1585291172540966541,46272,1585291172539201437,foot_imu_link,0.234006643295,0.162624359131,0.508598983288,-0.812478482723,0.0,0.0,0.0,0.0,0.0,0.0,0.0,0.0,0.0,0.000280045904219,-0.00626333523542,-0.00334005872719,0.01,0.0,0.0,0.0,0.01,0.0,0.0,0.0,0.01,-4.79437971115,2.07310366631,-8.00915527344,0.01,0.0,0.0,0.0,0.01,0.0,0.0,0.0,0.01
1585291172556470109,46273,1585291172555611080,foot_imu_link,0.234008863568,0.162671774626,0.50860875845,-0.81246227026,0.0,0.0,0.0,0.0,0.0,0.0,0.0,0.0,0.0,0.00283528957516,-0.00743702147156,-0.00447708275169,0.01,0.0,0.0,0.0,0.01,0.0,0.0,0.0,0.01,-4.78405761719,2.05861949921,-8.00984477997,0.01,0.0,0.0,0.0,0.01,0.0,0.0,0.0,0.01
1585291172572275075,46274,1585291172571659913,foot_imu_link,0.234022900462,0.162720441818,0.508616268635,-0.81244379282,0.0,0.0,0.0,0.0,0.0,0.0,0.0,0.0,0.0,0.00127153284848,-0.00429994612932,-0.00385954137892,0.01,0.0,0.0,0.0,0.01,0.0,0.0,0.0,0.01,-4.79623508453,2.03741359711,-7.97926902771,0.01,0.0,0.0,0.0,0.01,0.0,0.0,0.0,0.01
1585291172587448275,46275,1585291172586890089,foot_imu_link,0.234031066298,0.162762790918,0.508634567261,-0.812421500683,0.0,0.0,0.0,0.0,0.0,0.0,0.0,0.0,0.0,0.000790686346591,-0.00446518324316,-0.00534447515383,0.01,0.0,0.0,0.0,0.01,0.0,0.0,0.0,0.01,-4.7915687561,2.02839159966,-7.97684907913,0.01,0.0,0.0,0.0,0.01,0.0,0.0,0.0,0.01
1585291172602397022,46276,1585291172601880912,foot_imu_link,0.23404353857,0.162811562419,0.508646547794,-0.812400579453,0.0,0.0,0.0,0.0,0.0,0.0,0.0,0.0,0.0,-0.000124142505229,-0.00589255662635,-0.00543475523591,0.01,0.0,0.0,0.0,0.01,0.0,0.0,0.0,0.01,-4.80705976486,2.03244829178,-7.99759674072,0.01,0.0,0.0,0.0,0.01,0.0,0.0,0.0,0.01
1585291172624179485,46277,1585291172623636534,foot_imu_link,0.234044030309,0.162869617343,0.508675515652,-0.812370717525,0.0,0.0,0.0,0.0,0.0,0.0,0.0,0.0,0.0,0.00324218627065,-0.00466397451237,-0.00702448468655,0.01,0.0,0.0,0.0,0.01,0.0,0.0,0.0,0.01,-4.81769990921,2.08574318886,-8.0266084671,0.01,0.0,0.0,0.0,0.01,0.0,0.0,0.0,0.01
1585291172639857103,46278,1585291172638829000,foot_imu_link,0.234053850174,0.162914991379,0.508716523647,-0.812333106995,0.0,0.0,0.0,0.0,0.0,0.0,0.0,0.0,0.0,0.000269716605544,-0.0070347962901,-0.00935416575521,0.01,0.0,0.0,0.0,0.01,0.0,0.0,0.0,0.01,-4.77688980103,2.07906770706,-8.0001411438,0.01,0.0,0.0,0.0,0.01,0.0,0.0,0.0,0.01
1585291172656511147,46279,1585291172655631760,foot_imu_link,0.234075888991,0.162965878844,0.508738279343,-0.81230288744,0.0,0.0,0.0,0.0,0.0,0.0,0.0,0.0,0.0,-0.00293741934001,-0.00700829038396,-0.0060553830117,0.01,0.0,0.0,0.0,0.01,0.0,0.0,0.0,0.01,-4.83063173294,2.0847966671,-8.03542900085,0.01,0.0,0.0,0.0,0.01,0.0,0.0,0.0,0.01
1585291172687244124,46280,1585291172686687886,foot_imu_link,0.234118506312,0.163133487105,0.508811354637,-0.812211155891,0.0,0.0,0.0,0.0,0.0,0.0,0.0,0.0,0.0,0.00177612900734,-0.00970804877579,-0.0083205960691,0.01,0.0,0.0,0.0,0.01,0.0,0.0,0.0,0.01,-4.85568523407,1.99279427528,-8.00360965729,0.01,0.0,0.0,0.0,0.01,0.0,0.0,0.0,0.01
1585291172702397400,46281,1585291172701863902,foot_imu_link,0.234118595719,0.163205727935,0.508833408356,-0.81218290329,0.0,0.0,0.0,0.0,0.0,0.0,0.0,0.0,0.0,0.0029942188412,-0.00563203310594,-0.00858693756163,0.01,0.0,0.0,0.0,0.01,0.0,0.0,0.0,0.01,-4.75762796402,2.06509184837,-8.00534248352,0.01,0.0,0.0,0.0,0.01,0.0,0.0,0.0,0.01
1585291172739570068,46282,1585291172738670334,foot_imu_link,0.234106943011,0.163401782513,0.508922815323,-0.812090814114,0.0,0.0,0.0,0.0,0.0,0.0,0.0,0.0,0.0,0.00277875363827,-0.00658432999626,-0.0115642407909,0.01,0.0,0.0,0.0,0.01,0.0,0.0,0.0,0.01,-4.75636291504,1.94263148308,-7.9507932663,0.01,0.0,0.0,0.0,0.01,0.0,0.0,0.0,0.01
1585291172754395656,46283,1585291172753878983,foot_imu_link,0.23411642015,0.163487881422,0.508962392807,-0.812045931816,0.0,0.0,0.0,0.0,0.0,0.0,0.0,0.0,0.0,0.000387366861105,-0.00899620354176,-0.00941245444119,0.01,0.0,0.0,0.0,0.01,0.0,0.0,0.0,0.01,-4.80594348907,2.00888752937,-7.99092245102,0.01,0.0,0.0,0.0,0.01,0.0,0.0,0.0,0.01
1585291172771604759,46284,1585291172770688176,foot_imu_link,0.234137684107,0.163563340902,0.508993685246,-0.812004983425,0.0,0.0,0.0,0.0,0.0,0.0,0.0,0.0,0.0,-0.0011196769774,-0.00850773137063,-0.00887791626155,0.01,0.0,0.0,0.0,0.01,0.0,0.0,0.0,0.01,-4.73655986786,2.03306818008,-7.95610952377,0.01,0.0,0.0,0.0,0.01,0.0,0.0,0.0,0.01
1585291172788000916,46285,1585291172786669255,foot_imu_link,0.234234660864,0.163662463427,0.50903481245,-0.81193125248,0.0,0.0,0.0,0.0,0.0,0.0,0.0,0.0,0.0,-0.00875127874315,-0.014448328875,-0.00878277420998,0.01,0.0,0.0,0.0,0.01,0.0,0.0,0.0,0.01,-4.76572132111,2.05799746513,-7.9843249321,0.01,0.0,0.0,0.0,0.01,0.0,0.0,0.0,0.01
1585291172802202246,46286,1585291172801540326,foot_imu_link,0.234342500567,0.163753077388,0.509068012238,-0.811861097813,0.0,0.0,0.0,0.0,0.0,0.0,0.0,0.0,0.0,-0.00908876024187,-0.0169420950115,-0.00843654572964,0.01,0.0,0.0,0.0,0.01,0.0,0.0,0.0,0.01,-4.83257198334,2.05023360252,-7.96536302567,0.01,0.0,0.0,0.0,0.01,0.0,0.0,0.0,0.01
1585291172817393984,46287,1585291172816840686,foot_imu_link,0.234450533986,0.163828715682,0.509100437164,-0.811794281006,0.0,0.0,0.0,0.0,0.0,0.0,0.0,0.0,0.0,-0.00937028974295,-0.0161577947438,-0.0093759894371,0.01,0.0,0.0,0.0,0.01,0.0,0.0,0.0,0.01,-4.87306451797,2.03116321564,-8.00892353058,0.01,0.0,0.0,0.0,0.01,0.0,0.0,0.0,0.01
1585291172838879131,46288,1585291172838327961,foot_imu_link,0.234620392323,0.163894146681,0.509154140949,-0.811698257923,0.0,0.0,0.0,0.0,0.0,0.0,0.0,0.0,0.0,-0.0157626252621,-0.0144598521292,-0.00817307736725,0.01,0.0,0.0,0.0,0.01,0.0,0.0,0.0,0.01,-4.8394947052,2.01289176941,-8.00757598877,0.01,0.0,0.0,0.0,0.01,0.0,0.0,0.0,0.01
1585291172854365952,46289,1585291172853741788,foot_imu_link,0.234757274389,0.163943991065,0.509173870087,-0.811636209488,0.0,0.0,0.0,0.0,0.0,0.0,0.0,0.0,0.0,-0.0154800107703,-0.0152652729303,-0.00388435320929,0.01,0.0,0.0,0.0,0.01,0.0,0.0,0.0,0.01,-4.8124666214,2.04953384399,-7.95773601532,0.01,0.0,0.0,0.0,0.01,0.0,0.0,0.0,0.01
1585291172871230373,46290,1585291172870396168,foot_imu_link,0.234909072518,0.163984015584,0.509160578251,-0.811592578888,0.0,0.0,0.0,0.0,0.0,0.0,0.0,0.0,0.0,-0.017520327121,-0.0147015647963,0.00137363141403,0.01,0.0,0.0,0.0,0.01,0.0,0.0,0.0,0.01,-4.76678657532,2.00350022316,-8.00435161591,0.01,0.0,0.0,0.0,0.01,0.0,0.0,0.0,0.01
1585291172902312287,46291,1585291172901672757,foot_imu_link,0.235488012433,0.164051622152,0.509124875069,-0.811433434486,0.0,0.0,0.0,0.0,0.0,0.0,0.0,0.0,0.0,-0.0304447859526,-0.0277920942754,-0.00131402164698,0.01,0.0,0.0,0.0,0.01,0.0,0.0,0.0,0.01,-4.95840358734,2.096596241,-8.02306938171,0.01,0.0,0.0,0.0,0.01,0.0,0.0,0.0,0.01
1585291172917195244,46292,1585291172916554933,foot_imu_link,0.23573230207,0.164085716009,0.509104549885,-0.811368465424,0.0,0.0,0.0,0.0,0.0,0.0,0.0,0.0,0.0,-0.0249091535807,-0.0202810373157,0.00155272474512,0.01,0.0,0.0,0.0,0.01,0.0,0.0,0.0,0.01,-4.87788248062,2.05785870552,-7.99698829651,0.01,0.0,0.0,0.0,0.01,0.0,0.0,0.0,0.01
1585291172954096859,46293,1585291172953513507,foot_imu_link,0.236099928617,0.164143711329,0.50908267498,-0.811263442039,0.0,0.0,0.0,0.0,0.0,0.0,0.0,0.0,0.0,-0.011454468593,-0.00772377476096,0.000273211859167,0.01,0.0,0.0,0.0,0.01,0.0,0.0,0.0,0.01,-4.86368846893,2.09068632126,-7.98400592804,0.01,0.0,0.0,0.0,0.01,0.0,0.0,0.0,0.01
1585291172969608435,46294,1585291172968859918,foot_imu_link,0.236185342073,0.164128229022,0.509064733982,-0.811253070831,0.0,0.0,0.0,0.0,0.0,0.0,0.0,0.0,0.0,-0.00925864744931,-0.00140374049079,0.00472207739949,0.01,0.0,0.0,0.0,0.01,0.0,0.0,0.0,0.01,-4.88622379303,2.03344106674,-8.01676845551,0.01,0.0,0.0,0.0,0.01,0.0,0.0,0.0,0.01
1585291172986205169,46295,1585291172985307429,foot_imu_link,0.236239746213,0.164079800248,0.509036660194,-0.811264634132,0.0,0.0,0.0,0.0,0.0,0.0,0.0,0.0,0.0,-0.00971370004117,0.00327688013203,0.00633564777672,0.01,0.0,0.0,0.0,0.01,0.0,0.0,0.0,0.01,-4.81133270264,2.06158924103,-7.95936012268,0.01,0.0,0.0,0.0,0.01,0.0,0.0,0.0,0.01
1585291173001801307,46296,1585291173001281568,foot_imu_link,0.2362601161,0.163989469409,0.508992612362,-0.811304628849,0.0,0.0,0.0,0.0,0.0,0.0,0.0,0.0,0.0,-0.00568754598498,0.00756627134979,0.00539229717106,0.01,0.0,0.0,0.0,0.01,0.0,0.0,0.0,0.01,-4.81127548218,2.06625938416,-7.97377300262,0.01,0.0,0.0,0.0,0.01,0.0,0.0,0.0,0.01
1585291173017403344,46297,1585291173016425109,foot_imu_link,0.236251220107,0.163935437799,0.508967757225,-0.811333715916,0.0,0.0,0.0,0.0,0.0,0.0,0.0,0.0,0.0,-0.000755100511014,0.00889697298408,0.00313288485631,0.01,0.0,0.0,0.0,0.01,0.0,0.0,0.0,0.01,-4.8493642807,2.09170866013,-7.97282981873,0.01,0.0,0.0,0.0,0.01,0.0,0.0,0.0,0.01
1585291173033774276,46298,1585291173032097413,foot_imu_link,0.236223518848,0.163886159658,0.508944153786,-0.811366558075,0.0,0.0,0.0,0.0,0.0,0.0,0.0,0.0,0.0,0.000850223004818,0.00898223556578,0.00323711894453,0.01,0.0,0.0,0.0,0.01,0.0,0.0,0.0,0.01,-4.84502696991,2.10380649567,-7.97910547256,0.01,0.0,0.0,0.0,0.01,0.0,0.0,0.0,0.01
1585291173054268070,46299,1585291173053591079,foot_imu_link,0.236168563366,0.163826003671,0.508931994438,-0.811402380466,0.0,0.0,0.0,0.0,0.0,0.0,0.0,0.0,0.0,0.00251116044819,0.00746108638123,0.000358512159437,0.01,0.0,0.0,0.0,0.01,0.0,0.0,0.0,0.01,-4.85694026947,2.07167458534,-8.00779628754,0.01,0.0,0.0,0.0,0.01,0.0,0.0,0.0,0.01
1585291173069521394,46300,1585291173068620444,foot_imu_link,0.236125648022,0.163786843419,0.508923351765,-0.811428129673,0.0,0.0,0.0,0.0,0.0,0.0,0.0,0.0,0.0,0.00283268745989,0.00829579867423,0.000499521382153,0.01,0.0,0.0,0.0,0.01,0.0,0.0,0.0,0.01,-4.86277008057,2.08586406708,-7.95625972748,0.01,0.0,0.0,0.0,0.01,0.0,0.0,0.0,0.01
1585291173089159355,46301,1585291173085417674,foot_imu_link,0.236067190766,0.163749098778,0.508916378021,-0.811457157135,0.0,0.0,0.0,0.0,0.0,0.0,0.0,0.0,0.0,0.0055317170918,0.00946213398129,0.00103884423152,0.01,0.0,0.0,0.0,0.01,0.0,0.0,0.0,0.01,-4.83219528198,2.09014558792,-7.95602750778,0.01,0.0,0.0,0.0,0.01,0.0,0.0,0.0,0.01
1585291173117796812,46302,1585291173116284111,foot_imu_link,0.235942900181,0.163654431701,0.508904159069,-0.81152009964,0.0,0.0,0.0,0.0,0.0,0.0,0.0,0.0,0.0,0.00259633082896,0.00762406783178,0.00162716628984,0.01,0.0,0.0,0.0,0.01,0.0,0.0,0.0,0.01,-4.82238292694,2.05998849869,-7.96806907654,0.01,0.0,0.0,0.0,0.01,0.0,0.0,0.0,0.01
1585291173132422742,46303,1585291173131399915,foot_imu_link,0.235900327563,0.163623616099,0.508892714977,-0.811545848846,0.0,0.0,0.0,0.0,0.0,0.0,0.0,0.0,0.0,0.00284893158823,0.00621670717373,0.000654025003314,0.01,0.0,0.0,0.0,0.01,0.0,0.0,0.0,0.01,-4.83573913574,2.07972598076,-7.98859119415,0.01,0.0,0.0,0.0,0.01,0.0,0.0,0.0,0.01
1585291173169026019,46304,1585291173168479698,foot_imu_link,0.235819280148,0.16358590126,0.508859336376,-0.811597943306,0.0,0.0,0.0,0.0,0.0,0.0,0.0,0.0,0.0,0.00226518046111,0.0044627673924,0.00110837537795,0.01,0.0,0.0,0.0,0.01,0.0,0.0,0.0,0.01,-4.83312606812,2.06761550903,-8.0052022934,0.01,0.0,0.0,0.0,0.01,0.0,0.0,0.0,0.01
1585291173184361661,46305,1585291173183624169,foot_imu_link,0.235783442855,0.163571298122,0.50884437561,-0.811620652676,0.0,0.0,0.0,0.0,0.0,0.0,0.0,0.0,0.0,0.00164350774139,0.00409427657723,9.01920720935e-05,0.01,0.0,0.0,0.0,0.01,0.0,0.0,0.0,0.01,-4.83451461792,2.05229878426,-7.99812364578,0.01,0.0,0.0,0.0,0.01,0.0,0.0,0.0,0.01
1585291173201204686,46306,1585291173200376044,foot_imu_link,0.235755801201,0.163545936346,0.508828222752,-0.811643898487,0.0,0.0,0.0,0.0,0.0,0.0,0.0,0.0,0.0,0.000841709785163,0.00555069185793,0.00222236197442,0.01,0.0,0.0,0.0,0.01,0.0,0.0,0.0,0.01,-4.85281324387,2.02988362312,-8.00075912476,0.01,0.0,0.0,0.0,0.01,0.0,0.0,0.0,0.01
1585291173216339250,46307,1585291173215823946,foot_imu_link,0.235730260611,0.163488611579,0.508795976639,-0.811683058739,0.0,0.0,0.0,0.0,0.0,0.0,0.0,0.0,0.0,-0.00110796932131,0.00566310295835,0.00386247131974,0.01,0.0,0.0,0.0,0.01,0.0,0.0,0.0,0.01,-4.82945966721,2.03262686729,-7.97255420685,0.01,0.0,0.0,0.0,0.01,0.0,0.0,0.0,0.01
1585291173231687027,46308,1585291173231237136,foot_imu_link,0.235713630915,0.163445591927,0.508787870407,-0.811701714993,0.0,0.0,0.0,0.0,0.0,0.0,0.0,0.0,0.0,-0.00059599429369,0.00527466693893,0.00207505747676,0.01,0.0,0.0,0.0,0.01,0.0,0.0,0.0,0.01,-4.7891702652,2.09252333641,-7.98171901703,0.01,0.0,0.0,0.0,0.01,0.0,0.0,0.0,0.01
1585291173246939717,46309,1585291173246458596,foot_imu_link,0.235706195235,0.163425937295,0.508771419525,-0.811717987061,0.0,0.0,0.0,0.0,0.0,0.0,0.0,0.0,0.0,-0.00344011839479,0.00203504250385,0.00290616089478,0.01,0.0,0.0,0.0,0.01,0.0,0.0,0.0,0.01,-4.75991439819,2.05716729164,-7.93441677094,0.01,0.0,0.0,0.0,0.01,0.0,0.0,0.0,0.01
1585291173269020738,46310,1585291173268122591,foot_imu_link,0.235692605376,0.163384094834,0.508746981621,-0.811745762825,0.0,0.0,0.0,0.0,0.0,0.0,0.0,0.0,0.0,-0.00158917251974,0.0047535514459,0.00327391922474,0.01,0.0,0.0,0.0,0.01,0.0,0.0,0.0,0.01,-4.75969076157,2.03534269333,-8.00228595734,0.01,0.0,0.0,0.0,0.01,0.0,0.0,0.0,0.01
1585291173283937356,46311,1585291173283437231,foot_imu_link,0.235677301884,0.163367971778,0.508721292019,-0.811769604683,0.0,0.0,0.0,0.0,0.0,0.0,0.0,0.0,0.0,-0.000697931274772,0.00387753057294,0.00092734862119,0.01,0.0,0.0,0.0,0.01,0.0,0.0,0.0,0.01,-4.82273244858,2.05377697945,-7.96538066864,0.01,0.0,0.0,0.0,0.01,0.0,0.0,0.0,0.01
1585291173301231635,46312,1585291173300329965,foot_imu_link,0.235664397478,0.163350120187,0.508704185486,-0.811787605286,0.0,0.0,0.0,0.0,0.0,0.0,0.0,0.0,0.0,-0.000957279466093,0.00290941540152,-0.000104936305434,0.01,0.0,0.0,0.0,0.01,0.0,0.0,0.0,0.01,-4.80604934692,2.0684940815,-7.99120426178,0.01,0.0,0.0,0.0,0.01,0.0,0.0,0.0,0.01
1585291173331427278,46313,1585291173330920456,foot_imu_link,0.235630750656,0.163307130337,0.508671402931,-0.811826527119,0.0,0.0,0.0,0.0,0.0,0.0,0.0,0.0,0.0,0.000591978430748,0.00202152738348,0.00133698666468,0.01,0.0,0.0,0.0,0.01,0.0,0.0,0.0,0.01,-4.81266212463,2.08322095871,-8.01828098297,0.01,0.0,0.0,0.0,0.01,0.0,0.0,0.0,0.01
1585291173346908770,46314,1585291173346278458,foot_imu_link,0.235626533628,0.163289561868,0.508644998074,-0.811847865582,0.0,0.0,0.0,0.0,0.0,0.0,0.0,0.0,0.0,-0.00206646416336,0.00180030649062,0.00206596544012,0.01,0.0,0.0,0.0,0.01,0.0,0.0,0.0,0.01,-4.826359272,2.05603528023,-7.97656917572,0.01,0.0,0.0,0.0,0.01,0.0,0.0,0.0,0.01
1585291173383963629,46315,1585291173383407932,foot_imu_link,0.235658019781,0.163256555796,0.508607625961,-0.811868786812,0.0,0.0,0.0,0.0,0.0,0.0,0.0,0.0,0.0,-0.00141396187246,0.00295588630252,0.00107585219666,0.01,0.0,0.0,0.0,0.01,0.0,0.0,0.0,0.01,-4.85269594193,2.08475399017,-8.01176738739,0.01,0.0,0.0,0.0,0.01,0.0,0.0,0.0,0.01
1585291173398854398,46316,1585291173398306563,foot_imu_link,0.235651597381,0.163234263659,0.508613228798,-0.811871647835,0.0,0.0,0.0,0.0,0.0,0.0,0.0,0.0,0.0,0.000231909565628,0.00261695543304,0.000118154101074,0.01,0.0,0.0,0.0,0.01,0.0,0.0,0.0,0.01,-4.82176589966,2.07882356644,-8.00210571289,0.01,0.0,0.0,0.0,0.01,0.0,0.0,0.0,0.01
1585291173415803588,46317,1585291173415265856,foot_imu_link,0.235639497638,0.163232132792,0.50860953331,-0.811877846718,0.0,0.0,0.0,0.0,0.0,0.0,0.0,0.0,0.0,0.000533360987902,0.00179541995749,-0.000926087610424,0.01,0.0,0.0,0.0,0.01,0.0,0.0,0.0,0.01,-4.80702590942,2.0901529789,-7.98097085953,0.01,0.0,0.0,0.0,0.01,0.0,0.0,0.0,0.01
1585291173431838530,46318,1585291173431192988,foot_imu_link,0.235615849495,0.163219034672,0.5086119771,-0.811885774136,0.0,0.0,0.0,0.0,0.0,0.0,0.0,0.0,0.0,0.00110925361514,0.00181343895383,-0.0013633670751,0.01,0.0,0.0,0.0,0.01,0.0,0.0,0.0,0.01,-4.82994318008,2.04466915131,-8.00053787231,0.01,0.0,0.0,0.0,0.01,0.0,0.0,0.0,0.01
1585291173446559988,46319,1585291173446060284,foot_imu_link,0.235584437847,0.163228809834,0.508609950542,-0.811894237995,0.0,0.0,0.0,0.0,0.0,0.0,0.0,0.0,0.0,0.00387485977262,0.00160253164358,-0.00119102257304,0.01,0.0,0.0,0.0,0.01,0.0,0.0,0.0,0.01,-4.82070446014,2.06460833549,-7.97793197632,0.01,0.0,0.0,0.0,0.01,0.0,0.0,0.0,0.01
1585291173462056945,46320,1585291173461259961,foot_imu_link,0.235540807247,0.163234308362,0.508609414101,-0.811906158924,0.0,0.0,0.0,0.0,0.0,0.0,0.0,0.0,0.0,0.00442491192371,0.00402502762154,-0.0013778959401,0.01,0.0,0.0,0.0,0.01,0.0,0.0,0.0,0.01,-4.82408905029,2.0547068119,-8.00876617432,0.01,0.0,0.0,0.0,0.01,0.0,0.0,0.0,0.01
1585291173484863694,46321,1585291173483344594,foot_imu_link,0.235480070114,0.163221076131,0.508612573147,-0.81192445755,0.0,0.0,0.0,0.0,0.0,0.0,0.0,0.0,0.0,0.00338159874082,0.00507138995454,-0.00222531682812,0.01,0.0,0.0,0.0,0.01,0.0,0.0,0.0,0.01,-4.83053827286,2.09266710281,-7.98861694336,0.01,0.0,0.0,0.0,0.01,0.0,0.0,0.0,0.01
1585291173498793026,46322,1585291173498175782,foot_imu_link,0.235444247723,0.16321657598,0.508616149426,-0.811933457851,0.0,0.0,0.0,0.0,0.0,0.0,0.0,0.0,0.0,0.00198463723063,0.00346141681075,-0.00203618360683,0.01,0.0,0.0,0.0,0.01,0.0,0.0,0.0,0.01,-4.82513618469,2.05872440338,-7.96842813492,0.01,0.0,0.0,0.0,0.01,0.0,0.0,0.0,0.01
1585291173513877351,46323,1585291173513482340,foot_imu_link,0.235417500138,0.163204312325,0.508625745773,-0.811937630177,0.0,0.0,0.0,0.0,0.0,0.0,0.0,0.0,0.0,0.00190147291869,0.00340459658764,-0.00198540696874,0.01,0.0,0.0,0.0,0.01,0.0,0.0,0.0,0.01,-4.80149841309,2.08242106438,-7.99881887436,0.01,0.0,0.0,0.0,0.01,0.0,0.0,0.0,0.01
1585291173522795392,46324,1585291173522081307,foot_imu_link,0.235400095582,0.163195192814,0.508629202843,-0.811942458153,0.0,0.0,0.0,0.0,0.0,0.0,0.0,0.0,0.0,0.000860839150846,0.00538820773363,-0.000452185049653,0.01,0.0,0.0,0.0,0.01,0.0,0.0,0.0,0.01,-4.83530569077,2.02475214005,-7.95820236206,0.01,0.0,0.0,0.0,0.01,0.0,0.0,0.0,0.01
1585291173547106812,46325,1585291173545870134,foot_imu_link,0.235352143645,0.163201093674,0.508646726608,-0.811944186687,0.0,0.0,0.0,0.0,0.0,0.0,0.0,0.0,0.0,0.00474463962018,0.0017626240151,-0.00481267739087,0.01,0.0,0.0,0.0,0.01,0.0,0.0,0.0,0.01,-4.80805683136,2.08549213409,-7.97575235367,0.01,0.0,0.0,0.0,0.01,0.0,0.0,0.0,0.01
1585291173561955414,46326,1585291173561216949,foot_imu_link,0.235314399004,0.163235858083,0.508654356003,-0.811943352222,0.0,0.0,0.0,0.0,0.0,0.0,0.0,0.0,0.0,0.00538257881999,-0.00149829231668,-0.00320045789704,0.01,0.0,0.0,0.0,0.01,0.0,0.0,0.0,0.01,-4.82220983505,2.02674198151,-7.99170589447,0.01,0.0,0.0,0.0,0.01,0.0,0.0,0.0,0.01
1585291173600363137,46327,1585291173598064416,foot_imu_link,0.235262066126,0.163282051682,0.508644223213,-0.811955571175,0.0,0.0,0.0,0.0,0.0,0.0,0.0,0.0,0.0,0.00292958226055,0.00130222283769,-0.000449004117399,0.01,0.0,0.0,0.0,0.01,0.0,0.0,0.0,0.01,-4.80686759949,2.0783624649,-7.96598911285,0.01,0.0,0.0,0.0,0.01,0.0,0.0,0.0,0.01
1585291173614467695,46328,1585291173613332628,foot_imu_link,0.235238224268,0.163289248943,0.508650183678,-0.811957240105,0.0,0.0,0.0,0.0,0.0,0.0,0.0,0.0,0.0,0.00365735311061,0.00243856431916,-0.00220560096204,0.01,0.0,0.0,0.0,0.01,0.0,0.0,0.0,0.01,-4.83704042435,2.07001519203,-7.98677062988,0.01,0.0,0.0,0.0,0.01,0.0,0.0,0.0,0.01
1585291173631240830,46329,1585291173629958452,foot_imu_link,0.235204935074,0.163277640939,0.508662462234,-0.811961591244,0.0,0.0,0.0,0.0,0.0,0.0,0.0,0.0,0.0,0.00239717494696,0.00551196048036,-0.00152680277824,0.01,0.0,0.0,0.0,0.01,0.0,0.0,0.0,0.01,-4.79424762726,2.06759572029,-7.95002412796,0.01,0.0,0.0,0.0,0.01,0.0,0.0,0.0,0.01
1585291173646265579,46330,1585291173645580488,foot_imu_link,0.235153332353,0.163277760148,0.508684039116,-0.811962962151,0.0,0.0,0.0,0.0,0.0,0.0,0.0,0.0,0.0,0.00322786159813,0.00370357255451,-0.00321212550625,0.01,0.0,0.0,0.0,0.01,0.0,0.0,0.0,0.01,-4.79936981201,2.05852794647,-8.02085971832,0.01,0.0,0.0,0.0,0.01,0.0,0.0,0.0,0.01
1585291173661400180,46331,1585291173660893447,foot_imu_link,0.235101133585,0.163271918893,0.508708119392,-0.811964213848,0.0,0.0,0.0,0.0,0.0,0.0,0.0,0.0,0.0,0.00529073458165,0.0051714014262,-0.00446572387591,0.01,0.0,0.0,0.0,0.01,0.0,0.0,0.0,0.01,-4.80976295471,2.08415699005,-7.98748540878,0.01,0.0,0.0,0.0,0.01,0.0,0.0,0.0,0.01
1585291173676440347,46332,1585291173675921193,foot_imu_link,0.235058277845,0.163257285953,0.508730828762,-0.811965286732,0.0,0.0,0.0,0.0,0.0,0.0,0.0,0.0,0.0,0.00365649629384,0.00705493381247,-0.00281895487569,0.01,0.0,0.0,0.0,0.01,0.0,0.0,0.0,0.01,-4.82124328613,2.06946182251,-7.97351980209,0.01,0.0,0.0,0.0,0.01,0.0,0.0,0.0,0.01
1585291173699450943,46333,1585291173697819079,foot_imu_link,0.23499494791,0.16322684288,0.508756935596,-0.811973452568,0.0,0.0,0.0,0.0,0.0,0.0,0.0,0.0,0.0,0.0019354717806,0.00692379288375,-0.00297829112969,0.01,0.0,0.0,0.0,0.01,0.0,0.0,0.0,0.01,-4.80400037766,2.05875349045,-7.96878576279,0.01,0.0,0.0,0.0,0.01,0.0,0.0,0.0,0.01
1585291173714768328,46334,1585291173713267429,foot_imu_link,0.234955102205,0.163202404976,0.50876969099,-0.811981856823,0.0,0.0,0.0,0.0,0.0,0.0,0.0,0.0,0.0,0.00272807758301,0.00724541628733,-0.00115585117601,0.01,0.0,0.0,0.0,0.01,0.0,0.0,0.0,0.01,-4.82391405106,2.03180575371,-7.97929954529,0.01,0.0,0.0,0.0,0.01,0.0,0.0,0.0,0.01
1585291173728698237,46335,1585291173728225005,foot_imu_link,0.234871789813,0.163216128945,0.508772611618,-0.812001407146,0.0,0.0,0.0,0.0,0.0,0.0,0.0,0.0,0.0,0.00529532227665,0.0092249000445,0.00110996235162,0.01,0.0,0.0,0.0,0.01,0.0,0.0,0.0,0.01,-4.8165140152,2.03708314896,-8.01813316345,0.01,0.0,0.0,0.0,0.01,0.0,0.0,0.0,0.01
1585291173747293503,46336,1585291173744898930,foot_imu_link,0.234847992659,0.16315215826,0.508783817291,-0.812014102936,0.0,0.0,0.0,0.0,0.0,0.0,0.0,0.0,0.0,-0.00136229675263,0.00786955934018,0.000627749599516,0.01,0.0,0.0,0.0,0.01,0.0,0.0,0.0,0.01,-4.79922676086,2.10269761086,-7.97885894775,0.01,0.0,0.0,0.0,0.01,0.0,0.0,0.0,0.01
1585291173761624186,46337,1585291173761082181,foot_imu_link,0.234829172492,0.163069680333,0.508805036545,-0.812022805214,0.0,0.0,0.0,0.0,0.0,0.0,0.0,0.0,0.0,-0.00346160586923,0.00513306353241,-0.00151428673416,0.01,0.0,0.0,0.0,0.01,0.0,0.0,0.0,0.01,-4.78495168686,2.07419013977,-7.99762868881,0.01,0.0,0.0,0.0,0.01,0.0,0.0,0.0,0.01
1585291173776308062,46338,1585291173775799616,foot_imu_link,0.23484416306,0.163020834327,0.508808135986,-0.812026381493,0.0,0.0,0.0,0.0,0.0,0.0,0.0,0.0,0.0,-0.00743305403739,0.00400690222159,0.00120030716062,0.01,0.0,0.0,0.0,0.01,0.0,0.0,0.0,0.01,-4.81091737747,2.01603269577,-8.00738716125,0.01,0.0,0.0,0.0,0.01,0.0,0.0,0.0,0.01
1585291173814057652,46339,1585291173813014019,foot_imu_link,0.234895274043,0.162896603346,0.508796572685,-0.812043726444,0.0,0.0,0.0,0.0,0.0,0.0,0.0,0.0,0.0,-0.00927907414734,0.00307946302928,0.00360311800614,0.01,0.0,0.0,0.0,0.01,0.0,0.0,0.0,0.01,-4.74242401123,2.06803369522,-8.0071182251,0.01,0.0,0.0,0.0,0.01,0.0,0.0,0.0,0.01
1585291173829558751,46340,1585291173828031494,foot_imu_link,0.234930157661,0.16287393868,0.508778750896,-0.812049269676,0.0,0.0,0.0,0.0,0.0,0.0,0.0,0.0,0.0,-0.00368461571634,-0.00396754406393,0.000756659545004,0.01,0.0,0.0,0.0,0.01,0.0,0.0,0.0,0.01,-4.82022714615,2.05674171448,-8.00121498108,0.01,0.0,0.0,0.0,0.01,0.0,0.0,0.0,0.01
1585291173846472477,46341,1585291173844667467,foot_imu_link,0.234935060143,0.162887424231,0.508761167526,-0.81205624342,0.0,0.0,0.0,0.0,0.0,0.0,0.0,0.0,0.0,0.000250271521509,-0.00238779070787,0.000163545832038,0.01,0.0,0.0,0.0,0.01,0.0,0.0,0.0,0.01,-4.81592082977,2.06429672241,-7.99878549576,0.01,0.0,0.0,0.0,0.01,0.0,0.0,0.0,0.01
1585291173861961666,46342,1585291173860957089,foot_imu_link,0.234950691462,0.162921637297,0.508749067783,-0.812052488327,0.0,0.0,0.0,0.0,0.0,0.0,0.0,0.0,0.0,0.000339146703482,-0.00216261483729,-0.00184127409011,0.01,0.0,0.0,0.0,0.01,0.0,0.0,0.0,0.01,-4.82685852051,2.06044507027,-7.9705657959,0.01,0.0,0.0,0.0,0.01,0.0,0.0,0.0,0.01
1585291173876379455,46343,1585291173875652855,foot_imu_link,0.234966620803,0.162941381335,0.508754014969,-0.812040746212,0.0,0.0,0.0,0.0,0.0,0.0,0.0,0.0,0.0,-0.000839384272695,-0.00215577590279,-0.00175156886689,0.01,0.0,0.0,0.0,0.01,0.0,0.0,0.0,0.01,-4.79898166656,2.0757393837,-8.01790904999,0.01,0.0,0.0,0.0,0.01,0.0,0.0,0.0,0.01
1585291173883272494,46344,1585291173882784075,foot_imu_link,0.234975174069,0.162949293852,0.508755981922,-0.812035441399,0.0,0.0,0.0,0.0,0.0,0.0,0.0,0.0,0.0,-0.0011333944276,-0.00194942846429,-0.00183903216384,0.01,0.0,0.0,0.0,0.01,0.0,0.0,0.0,0.01,-4.83700561523,2.07936549187,-8.01447296143,0.01,0.0,0.0,0.0,0.01,0.0,0.0,0.0,0.01
1585291173913653517,46345,1585291173912848622,foot_imu_link,0.234983578324,0.162986457348,0.508752286434,-0.812027871609,0.0,0.0,0.0,0.0,0.0,0.0,0.0,0.0,0.0,-0.000394275411963,-0.00415425840765,-0.00202570809051,0.01,0.0,0.0,0.0,0.01,0.0,0.0,0.0,0.01,-4.817715168,2.05900073051,-7.97563314438,0.01,0.0,0.0,0.0,0.01,0.0,0.0,0.0,0.01
1585291173928952632,46346,1585291173927860380,foot_imu_link,0.234991565347,0.163006141782,0.508753418922,-0.812020897865,0.0,0.0,0.0,0.0,0.0,0.0,0.0,0.0,0.0,0.00012082606554,-0.00277505232953,-0.00288026663475,0.01,0.0,0.0,0.0,0.01,0.0,0.0,0.0,0.01,-4.81061935425,2.04944086075,-8.00504112244,0.01,0.0,0.0,0.0,0.01,0.0,0.0,0.0,0.01
1585291173944070690,46347,1585291173943211318,foot_imu_link,0.234997630119,0.163002178073,0.508760452271,-0.812015593052,0.0,0.0,0.0,0.0,0.0,0.0,0.0,0.0,0.0,-0.00177354551852,0.000436256406829,-0.0024945277255,0.01,0.0,0.0,0.0,0.01,0.0,0.0,0.0,0.01,-4.83694553375,2.06070256233,-8.03016090393,0.01,0.0,0.0,0.0,0.01,0.0,0.0,0.0,0.01
1585291173961377532,46348,1585291173959831299,foot_imu_link,0.235003963113,0.162988454103,0.508778750896,-0.812004983425,0.0,0.0,0.0,0.0,0.0,0.0,0.0,0.0,0.0,-0.00188336707652,0.00282249669544,-0.00413383822888,0.01,0.0,0.0,0.0,0.01,0.0,0.0,0.0,0.01,-4.82009887695,2.08992147446,-7.98365974426,0.01,0.0,0.0,0.0,0.01,0.0,0.0,0.0,0.01
1585291173977193080,46349,1585291173975835658,foot_imu_link,0.234993740916,0.162957817316,0.508809328079,-0.81199491024,0.0,0.0,0.0,0.0,0.0,0.0,0.0,0.0,0.0,-0.00178830046207,0.00563013134524,-0.00338226184249,0.01,0.0,0.0,0.0,0.01,0.0,0.0,0.0,0.01,-4.79083585739,2.09035778046,-7.98543739319,0.01,0.0,0.0,0.0,0.01,0.0,0.0,0.0,0.01
1585291173992010235,46350,1585291173991117782,foot_imu_link,0.234977528453,0.162928208709,0.508844316006,-0.811983704567,0.0,0.0,0.0,0.0,0.0,0.0,0.0,0.0,0.0,-0.00156818889081,0.0041249524802,-0.00591924414039,0.01,0.0,0.0,0.0,0.01,0.0,0.0,0.0,0.01,-4.80779075623,2.06689691544,-8.0210609436,0.01,0.0,0.0,0.0,0.01,0.0,0.0,0.0,0.01
1585291173999149374,46351,1585291173998445676,foot_imu_link,0.234971359372,0.162915512919,0.508874475956,-0.811969101429,0.0,0.0,0.0,0.0,0.0,0.0,0.0,0.0,0.0,-0.000659568235278,0.00330095062964,-0.00720976479352,0.01,0.0,0.0,0.0,0.01,0.0,0.0,0.0,0.01,-4.82499599457,2.08120799065,-7.98914813995,0.01,0.0,0.0,0.0,0.01,0.0,0.0,0.0,0.01
1585291174039854964,46352,1585291174038518427,foot_imu_link,0.234960883856,0.162777304649,0.509111881256,-0.811851024628,0.0,0.0,0.0,0.0,0.0,0.0,0.0,0.0,0.0,-0.0239242985845,0.036984924227,-0.0215212367475,0.01,0.0,0.0,0.0,0.01,0.0,0.0,0.0,0.01,-5.15003967285,2.29268789291,-8.16951751709,0.01,0.0,0.0,0.0,0.01,0.0,0.0,0.0,0.01
1585291174060311581,46353,1585291174059652173,foot_imu_link,0.234980046749,0.162146806717,0.509444952011,-0.811762750149,0.0,0.0,0.0,0.0,0.0,0.0,0.0,0.0,0.0,-0.0648600012064,0.0909675955772,-0.00236771418713,0.01,0.0,0.0,0.0,0.01,0.0,0.0,0.0,0.01,-5.50491666794,2.08810138702,-8.50353622437,0.01,0.0,0.0,0.0,0.01,0.0,0.0,0.0,0.01
1585291174076726874,46354,1585291174075764924,foot_imu_link,0.234893277287,0.160694777966,0.510012328625,-0.811720192432,0.0,0.0,0.0,0.0,0.0,0.0,0.0,0.0,0.0,-0.0792284607887,0.157151430845,-0.0317515656352,0.01,0.0,0.0,0.0,0.01,0.0,0.0,0.0,0.01,-4.96357011795,2.2786231041,-8.11600112915,0.01,0.0,0.0,0.0,0.01,0.0,0.0,0.0,0.01
1585291174092536156,46355,1585291174090943162,foot_imu_link,0.234432339668,0.159330502152,0.510843515396,-0.81159979105,0.0,0.0,0.0,0.0,0.0,0.0,0.0,0.0,0.0,-0.0520008280873,0.218578621745,-0.0868498533964,0.01,0.0,0.0,0.0,0.01,0.0,0.0,0.0,0.01,-4.77308511734,2.296230793,-7.99969577789,0.01,0.0,0.0,0.0,0.01,0.0,0.0,0.0,0.01
1585291174106514990,46356,1585291174105862008,foot_imu_link,0.233356192708,0.158168315887,0.512032449245,-0.811388015747,0.0,0.0,0.0,0.0,0.0,0.0,0.0,0.0,0.0,0.0410233624279,0.226131483912,-0.155245304108,0.01,0.0,0.0,0.0,0.01,0.0,0.0,0.0,0.01,-4.81266212463,2.25968241692,-7.89387369156,0.01,0.0,0.0,0.0,0.01,0.0,0.0,0.0,0.01
1585291174128894363,46357,1585291174127665230,foot_imu_link,0.23081792891,0.157223820686,0.514084994793,-0.810999631882,0.0,0.0,0.0,0.0,0.0,0.0,0.0,0.0,0.0,0.174921736121,0.225421950221,-0.23511312902,0.01,0.0,0.0,0.0,0.01,0.0,0.0,0.0,0.01,-4.15095949173,2.2982199192,-7.82632303238,0.01,0.0,0.0,0.0,0.01,0.0,0.0,0.0,0.01
1585291174144129785,46358,1585291174142845789,foot_imu_link,0.228452175856,0.157652854919,0.515607655048,-0.810619533062,0.0,0.0,0.0,0.0,0.0,0.0,0.0,0.0,0.0,0.283207803965,0.116606853902,-0.266148090363,0.01,0.0,0.0,0.0,0.01,0.0,0.0,0.0,0.01,-3.90220999718,2.2872004509,-7.69145298004,0.01,0.0,0.0,0.0,0.01,0.0,0.0,0.0,0.01
1585291174161435316,46359,1585291174157896020,foot_imu_link,0.226038023829,0.159032076597,0.517082214355,-0.810087382793,0.0,0.0,0.0,0.0,0.0,0.0,0.0,0.0,0.0,0.316119611263,0.0206091012806,-0.292665660381,0.01,0.0,0.0,0.0,0.01,0.0,0.0,0.0,0.01,-4.24791097641,1.75040566921,-7.85197353363,0.01,0.0,0.0,0.0,0.01,0.0,0.0,0.0,0.01
1585291174175280886,46360,1585291174174602193,foot_imu_link,0.223920330405,0.160742968321,0.518449008465,-0.809464037418,0.0,0.0,0.0,0.0,0.0,0.0,0.0,0.0,0.0,0.29269567132,-0.0235216934234,-0.27559068799,0.01,0.0,0.0,0.0,0.01,0.0,0.0,0.0,0.01,-4.45056819916,1.55313563347,-7.95206642151,0.01,0.0,0.0,0.0,0.01,0.0,0.0,0.0,0.01
1585291174191868323,46361,1585291174190807535,foot_imu_link,0.221852973104,0.162973344326,0.519885897636,-0.808665394783,0.0,0.0,0.0,0.0,0.0,0.0,0.0,0.0,0.0,0.21145349741,-0.0808051154017,-0.215689912438,0.01,0.0,0.0,0.0,0.01,0.0,0.0,0.0,0.01,-4.49431419373,1.58747708797,-8.05820655823,0.01,0.0,0.0,0.0,0.01,0.0,0.0,0.0,0.01
1585291174207383112,46362,1585291174205939651,foot_imu_link,0.220824033022,0.16458080709,0.520724773407,-0.808081448078,0.0,0.0,0.0,0.0,0.0,0.0,0.0,0.0,0.0,0.177142575383,-0.0938052609563,-0.187926411629,0.01,0.0,0.0,0.0,0.01,0.0,0.0,0.0,0.01,-4.61144161224,1.74004733562,-8.1480512619,0.01,0.0,0.0,0.0,0.01,0.0,0.0,0.0,0.01
1585291174221893514,46363,1585291174221147030,foot_imu_link,0.220185652375,0.166081517935,0.52145087719,-0.807480216026,0.0,0.0,0.0,0.0,0.0,0.0,0.0,0.0,0.0,0.121380865574,-0.114615932107,-0.166104763746,0.01,0.0,0.0,0.0,0.01,0.0,0.0,0.0,0.01,-4.74099254608,1.56179046631,-8.04535102844,0.01,0.0,0.0,0.0,0.01,0.0,0.0,0.0,0.01
1585291174243372331,46364,1585291174242670618,foot_imu_link,0.219665437937,0.167719438672,0.522265851498,-0.806756258011,0.0,0.0,0.0,0.0,0.0,0.0,0.0,0.0,0.0,0.0989927649498,-0.0842424705625,-0.132016941905,0.01,0.0,0.0,0.0,0.01,0.0,0.0,0.0,0.01,-4.94951438904,1.7368414402,-7.83846235275,0.01,0.0,0.0,0.0,0.01,0.0,0.0,0.0,0.01
1585291174258224778,46365,1585291174257744975,foot_imu_link,0.219259396195,0.168870687485,0.522757470608,-0.806308031082,0.0,0.0,0.0,0.0,0.0,0.0,0.0,0.0,0.0,0.1020398736,-0.105143375695,-0.11534062773,0.01,0.0,0.0,0.0,0.01,0.0,0.0,0.0,0.01,-4.5560464859,1.65218818188,-7.85934352875,0.01,0.0,0.0,0.0,0.01,0.0,0.0,0.0,0.01
1585291174274935950,46366,1585291174274450030,foot_imu_link,0.219074890018,0.170174509287,0.523070156574,-0.805881202221,0.0,0.0,0.0,0.0,0.0,0.0,0.0,0.0,0.0,0.0868187472224,-0.140546008945,-0.0963966846466,0.01,0.0,0.0,0.0,0.01,0.0,0.0,0.0,0.01,-4.36989974976,1.56182074547,-8.08893013,0.01,0.0,0.0,0.0,0.01,0.0,0.0,0.0,0.01
1585291174290713504,46367,1585291174290256049,foot_imu_link,0.219521656632,0.172201514244,0.523321270943,-0.80516564846,0.0,0.0,0.0,0.0,0.0,0.0,0.0,0.0,0.0,0.0356049798429,-0.20354783535,-0.0883872509003,0.01,0.0,0.0,0.0,0.01,0.0,0.0,0.0,0.01,-4.82117700577,1.64745783806,-8.28329181671,0.01,0.0,0.0,0.0,0.01,0.0,0.0,0.0,0.01
1585291174305844535,46368,1585291174305310349,foot_imu_link,0.220131158829,0.17360933125,0.52355158329,-0.804547011852,0.0,0.0,0.0,0.0,0.0,0.0,0.0,0.0,0.0,0.00237258151174,-0.197934359312,-0.0885598137975,0.01,0.0,0.0,0.0,0.01,0.0,0.0,0.0,0.01,-5.15355014801,1.7518081665,-8.14281177521,0.01,0.0,0.0,0.0,0.01,0.0,0.0,0.0,0.01
1585291174322033441,46369,1585291174321171339,foot_imu_link,0.220576018095,0.174604535103,0.523814320564,-0.804038643837,0.0,0.0,0.0,0.0,0.0,0.0,0.0,0.0,0.0,0.00325561594218,-0.11076207459,-0.0743768140674,0.01,0.0,0.0,0.0,0.01,0.0,0.0,0.0,0.01,-5.319252491,1.62725484371,-8.08485126495,0.01,0.0,0.0,0.0,0.01,0.0,0.0,0.0,0.01
1585291174342988766,46370,1585291174342436570,foot_imu_link,0.220909684896,0.175459638238,0.524143636227,-0.803546130657,0.0,0.0,0.0,0.0,0.0,0.0,0.0,0.0,0.0,0.000997425056994,-0.0836742818356,-0.0586126074195,0.01,0.0,0.0,0.0,0.01,0.0,0.0,0.0,0.01,-4.93258619308,1.48386144638,-8.13032913208,0.01,0.0,0.0,0.0,0.01,0.0,0.0,0.0,0.01
1585291174358240849,46371,1585291174357611566,foot_imu_link,0.221154302359,0.176122561097,0.524311959743,-0.803223907948,0.0,0.0,0.0,0.0,0.0,0.0,0.0,0.0,0.0,0.0120005896315,-0.0842661112547,-0.0479080080986,0.01,0.0,0.0,0.0,0.01,0.0,0.0,0.0,0.01,-5.27946710587,1.67537546158,-8.07646942139,0.01,0.0,0.0,0.0,0.01,0.0,0.0,0.0,0.01
1585291174373627189,46372,1585291174373076410,foot_imu_link,0.221265956759,0.176594913006,0.524461388588,-0.802991867065,0.0,0.0,0.0,0.0,0.0,0.0,0.0,0.0,0.0,0.0107688885182,-0.0545473471284,-0.0356720760465,0.01,0.0,0.0,0.0,0.01,0.0,0.0,0.0,0.01,-4.89019060135,1.47382044792,-8.04205417633,0.01,0.0,0.0,0.0,0.01,0.0,0.0,0.0,0.01
1585291174390341328,46373,1585291174389605914,foot_imu_link,0.221429809928,0.177036970854,0.524561047554,-0.802784144878,0.0,0.0,0.0,0.0,0.0,0.0,0.0,0.0,0.0,0.00785819161683,-0.0630081295967,-0.030657755211,0.01,0.0,0.0,0.0,0.01,0.0,0.0,0.0,0.01,-5.0728521347,1.6969203949,-8.07432937622,0.01,0.0,0.0,0.0,0.01,0.0,0.0,0.0,0.01
1585291174405899609,46374,1585291174405328979,foot_imu_link,0.221593186259,0.177657902241,0.524688065052,-0.802518963814,0.0,0.0,0.0,0.0,0.0,0.0,0.0,0.0,0.0,0.0125392470509,-0.059728898108,-0.0324939712882,0.01,0.0,0.0,0.0,0.01,0.0,0.0,0.0,0.01,-4.95591163635,1.58335256577,-8.03564357758,0.01,0.0,0.0,0.0,0.01,0.0,0.0,0.0,0.01
1585291174421125562,46375,1585291174420498327,foot_imu_link,0.221687167883,0.178066045046,0.524788498878,-0.802336752415,0.0,0.0,0.0,0.0,0.0,0.0,0.0,0.0,0.0,0.0138024520129,-0.0496483147144,-0.03158627823,0.01,0.0,0.0,0.0,0.01,0.0,0.0,0.0,0.01,-4.86747646332,1.64238345623,-7.97755432129,0.01,0.0,0.0,0.0,0.01,0.0,0.0,0.0,0.01
1585291174437066790,46376,1585291174435886934,foot_imu_link,0.221794947982,0.178531304002,0.524961650372,-0.802090346813,0.0,0.0,0.0,0.0,0.0,0.0,0.0,0.0,0.0,0.01049143821,-0.0654643476009,-0.0555789545178,0.01,0.0,0.0,0.0,0.01,0.0,0.0,0.0,0.01,-4.41229534149,1.65295934677,-7.91610717773,0.01,0.0,0.0,0.0,0.01,0.0,0.0,0.0,0.01
1585291174458318191,46377,1585291174457639203,foot_imu_link,0.22213229537,0.179636836052,0.525314390659,-0.801519036293,0.0,0.0,0.0,0.0,0.0,0.0,0.0,0.0,0.0,-0.00206496194005,-0.125656753778,-0.0813686400652,0.01,0.0,0.0,0.0,0.01,0.0,0.0,0.0,0.01,-5.35655879974,1.60587048531,-7.993475914,0.01,0.0,0.0,0.0,0.01,0.0,0.0,0.0,0.01
1585291174473535020,46378,1585291174472680178,foot_imu_link,0.222583681345,0.180457830429,0.525681436062,-0.800968408585,0.0,0.0,0.0,0.0,0.0,0.0,0.0,0.0,0.0,-0.0327839627862,-0.130802407861,-0.0910779684782,0.01,0.0,0.0,0.0,0.01,0.0,0.0,0.0,0.01,-4.45878410339,1.49272656441,-7.73000526428,0.01,0.0,0.0,0.0,0.01,0.0,0.0,0.0,0.01
1585291174490116971,46379,1585291174489541679,foot_imu_link,0.223507225513,0.181180238724,0.525932848454,-0.800383031368,0.0,0.0,0.0,0.0,0.0,0.0,0.0,0.0,0.0,-0.081258058548,-0.154378801584,-0.0556123442948,0.01,0.0,0.0,0.0,0.01,0.0,0.0,0.0,0.01,-5.28291320801,1.2028465271,-7.91191864014,0.01,0.0,0.0,0.0,0.01,0.0,0.0,0.0,0.01
1585291174521166745,46380,1585291174520300597,foot_imu_link,0.226874664426,0.181820496917,0.525920987129,-0.799297392368,0.0,0.0,0.0,0.0,0.0,0.0,0.0,0.0,0.0,-0.179054751992,-0.134452328086,0.0374194867909,0.01,0.0,0.0,0.0,0.01,0.0,0.0,0.0,0.01,-5.47584152222,1.49755465984,-8.02574443817,0.01,0.0,0.0,0.0,0.01,0.0,0.0,0.0,0.01
1585291174536166126,46381,1585291174535573076,foot_imu_link,0.228114053607,0.182109028101,0.525692939758,-0.799028992653,0.0,0.0,0.0,0.0,0.0,0.0,0.0,0.0,0.0,-0.0740841850638,-0.117815881968,0.0139706209302,0.01,0.0,0.0,0.0,0.01,0.0,0.0,0.0,0.01,-5.32575178146,1.85830032825,-8.00611686707,0.01,0.0,0.0,0.0,0.01,0.0,0.0,0.0,0.01
1585291174557908757,46382,1585291174557210774,foot_imu_link,0.22845043242,0.183082595468,0.525638818741,-0.798745930195,0.0,0.0,0.0,0.0,0.0,0.0,0.0,0.0,0.0,0.0616769939661,-0.0883247330785,-0.0461370386183,0.01,0.0,0.0,0.0,0.01,0.0,0.0,0.0,0.01,-5.16959095001,1.8644194603,-8.08124351501,0.01,0.0,0.0,0.0,0.01,0.0,0.0,0.0,0.01
1585291174573302297,46383,1585291174572617650,foot_imu_link,0.228153541684,0.183936730027,0.525770068169,-0.798548161983,0.0,0.0,0.0,0.0,0.0,0.0,0.0,0.0,0.0,0.0889690816402,-0.0603134967387,-0.0649971812963,0.01,0.0,0.0,0.0,0.01,0.0,0.0,0.0,0.01,-5.30509710312,1.85580539703,-7.97975635529,0.01,0.0,0.0,0.0,0.01,0.0,0.0,0.0,0.01
1585291174588162036,46384,1585291174587577125,foot_imu_link,0.22758474946,0.184611976147,0.52598297596,-0.798414349556,0.0,0.0,0.0,0.0,0.0,0.0,0.0,0.0,0.0,0.102947674692,-0.0144064314663,-0.0645049437881,0.01,0.0,0.0,0.0,0.01,0.0,0.0,0.0,0.01,-5.3599820137,1.76281368732,-7.95137214661,0.01,0.0,0.0,0.0,0.01,0.0,0.0,0.0,0.01
1585291174604967483,46385,1585291174604257547,foot_imu_link,0.226791828871,0.18506513536,0.526237726212,-0.798367321491,0.0,0.0,0.0,0.0,0.0,0.0,0.0,0.0,0.0,0.108420535922,0.0256685744971,-0.0599483549595,0.01,0.0,0.0,0.0,0.01,0.0,0.0,0.0,0.01,-5.30884599686,1.58628094196,-7.98789310455,0.01,0.0,0.0,0.0,0.01,0.0,0.0,0.0,0.01
