%time,field.header.seq,field.header.stamp,field.header.frame_id,field.orientation.x,field.orientation.y,field.orientation.z,field.orientation.w,field.orientation_covariance0,field.orientation_covariance1,field.orientation_covariance2,field.orientation_covariance3,field.orientation_covariance4,field.orientation_covariance5,field.orientation_covariance6,field.orientation_covariance7,field.orientation_covariance8,field.angular_velocity.x,field.angular_velocity.y,field.angular_velocity.z,field.angular_velocity_covariance0,field.angular_velocity_covariance1,field.angular_velocity_covariance2,field.angular_velocity_covariance3,field.angular_velocity_covariance4,field.angular_velocity_covariance5,field.angular_velocity_covariance6,field.angular_velocity_covariance7,field.angular_velocity_covariance8,field.linear_acceleration.x,field.linear_acceleration.y,field.linear_acceleration.z,field.linear_acceleration_covariance0,field.linear_acceleration_covariance1,field.linear_acceleration_covariance2,field.linear_acceleration_covariance3,field.linear_acceleration_covariance4,field.linear_acceleration_covariance5,field.linear_acceleration_covariance6,field.linear_acceleration_covariance7,field.linear_acceleration_covariance8
1585289618109809460,8236,1585289618109379429,waist_imu_link,-0.491608649492,0.620329976082,-0.472890883684,0.387151122093,2.10203874565e-05,0.0,0.0,0.0,1.88600516286e-05,0.0,0.0,0.0,4.47875133257e-05,-0.00281635555439,-0.00615241751075,-0.00317128002644,0.01,0.0,0.0,0.0,0.01,0.0,0.0,0.0,0.01,0.17279073596,9.50332832336,2.41506457329,0.01,0.0,0.0,0.0,0.01,0.0,0.0,0.0,0.01
1585289618135121964,8237,1585289618134571801,waist_imu_link,-0.491696357727,0.620281338692,-0.47286388278,0.38715043664,2.1068281769e-05,0.0,0.0,0.0,1.89021938284e-05,0.0,0.0,0.0,4.48265773021e-05,0.00262239156291,-0.00407645339146,-0.00604286044836,0.01,0.0,0.0,0.0,0.01,0.0,0.0,0.0,0.01,0.205830156803,9.5444021225,2.46430516243,0.01,0.0,0.0,0.0,0.01,0.0,0.0,0.0,0.01
1585289618160053829,8238,1585289618159459630,waist_imu_link,-0.491696119308,0.620261490345,-0.472872763872,0.387171685696,2.11058747e-05,0.0,0.0,0.0,1.89336384398e-05,0.0,0.0,0.0,4.48502603204e-05,-0.000593713717535,-0.000863520428538,0.00325819849968,0.01,0.0,0.0,0.0,0.01,0.0,0.0,0.0,0.01,0.15571731329,9.53503036499,2.45810675621,0.01,0.0,0.0,0.0,0.01,0.0,0.0,0.0,0.01
1585289618185264563,8239,1585289618184582882,waist_imu_link,-0.491692334414,0.620228052139,-0.472871989012,0.387231260538,2.11328391247e-05,0.0,0.0,0.0,1.89564274526e-05,0.0,0.0,0.0,4.4873398808e-05,-0.00111432000995,-0.00621218141168,-0.000555105507374,0.01,0.0,0.0,0.0,0.01,0.0,0.0,0.0,0.01,0.12926441431,9.48888969421,2.38073444366,0.01,0.0,0.0,0.0,0.01,0.0,0.0,0.0,0.01
1585289618209933940,8240,1585289618209370666,waist_imu_link,-0.491785258055,0.620165765285,-0.472833663225,0.387259751558,2.11579241061e-05,0.0,0.0,0.0,1.89815307204e-05,0.0,0.0,0.0,4.49215410038e-05,-0.00261409813538,-0.00936636328697,-0.00725490227342,0.01,0.0,0.0,0.0,0.01,0.0,0.0,0.0,0.01,0.168166741729,9.46545219421,2.46329832077,0.01,0.0,0.0,0.0,0.01,0.0,0.0,0.0,0.01
1585289618235415484,8241,1585289618234753901,waist_imu_link,-0.491895377636,0.620113611221,-0.472789078951,0.387257903814,2.11717933822e-05,0.0,0.0,0.0,1.89923217731e-05,0.0,0.0,0.0,4.49359832561e-05,-0.00667913816869,-0.00450161006302,-0.00546158850193,0.01,0.0,0.0,0.0,0.01,0.0,0.0,0.0,0.01,0.146482214332,9.50589179993,2.43990087509,0.01,0.0,0.0,0.0,0.01,0.0,0.0,0.0,0.01
1585289618260191675,8242,1585289618259556974,waist_imu_link,-0.491938591003,0.620123386383,-0.472753316164,0.387230992317,2.11740852872e-05,0.0,0.0,0.0,1.89901944464e-05,0.0,0.0,0.0,4.49267262356e-05,-0.00343336490914,-0.00130467186682,0.000900194048882,0.01,0.0,0.0,0.0,0.01,0.0,0.0,0.0,0.01,0.159289941192,9.55552005768,2.48293876648,0.01,0.0,0.0,0.0,0.01,0.0,0.0,0.0,0.01
1585289618285162820,8243,1585289618284483291,waist_imu_link,-0.491983413696,0.620080649853,-0.472720384598,0.387282550335,2.11620446587e-05,0.0,0.0,0.0,1.89765954037e-05,0.0,0.0,0.0,4.491781869e-05,0.00307236379012,-0.0110555589199,-0.00212126597762,0.01,0.0,0.0,0.0,0.01,0.0,0.0,0.0,0.01,0.150292783976,9.53907299042,2.4610888958,0.01,0.0,0.0,0.0,0.01,0.0,0.0,0.0,0.01
1585289618310173440,8244,1585289618309488036,waist_imu_link,-0.492064327002,0.619938194752,-0.472725182772,0.387402027845,2.11379979428e-05,0.0,0.0,0.0,1.89532090328e-05,0.0,0.0,0.0,4.4907427908e-05,0.00728529226035,-0.012906504795,-0.00729870423675,0.01,0.0,0.0,0.0,0.01,0.0,0.0,0.0,0.01,0.18388363719,9.46122264862,2.44623589516,0.01,0.0,0.0,0.0,0.01,0.0,0.0,0.0,0.01
1585289618335304117,8245,1585289618334617759,waist_imu_link,-0.492168992758,0.619824230671,-0.472687095404,0.387497782707,2.11005533354e-05,0.0,0.0,0.0,1.89214169784e-05,0.0,0.0,0.0,4.49117963439e-05,-0.000781927257776,-0.0134286396205,-0.00572867691517,0.01,0.0,0.0,0.0,0.01,0.0,0.0,0.0,0.01,0.166904360056,9.4911699295,2.42811870575,0.01,0.0,0.0,0.0,0.01,0.0,0.0,0.0,0.01
1585289618360259923,8246,1585289618359662002,waist_imu_link,-0.492299407721,0.619753718376,-0.472603261471,0.387547194958,2.10541788323e-05,0.0,0.0,0.0,1.88834501905e-05,0.0,0.0,0.0,4.49224350093e-05,-0.0082290796563,-0.0130288172513,-0.00158789381385,0.01,0.0,0.0,0.0,0.01,0.0,0.0,0.0,0.01,0.125128924847,9.49852561951,2.4062871933,0.01,0.0,0.0,0.0,0.01,0.0,0.0,0.0,0.01
1585289618385235539,8247,1585289618384556841,waist_imu_link,-0.492436259985,0.619733572006,-0.472473889589,0.387563347816,2.10111954546e-05,0.0,0.0,0.0,1.88454488616e-05,0.0,0.0,0.0,4.49142751773e-05,-0.0097988769412,-0.0135450419039,-0.00222146138549,0.01,0.0,0.0,0.0,0.01,0.0,0.0,0.0,0.01,0.0980287194252,9.5343837738,2.45458269119,0.01,0.0,0.0,0.0,0.01,0.0,0.0,0.0,0.01
1585289618410410803,8248,1585289618409444560,waist_imu_link,-0.492546081543,0.61973798275,-0.472357869148,0.387558102608,2.10074690772e-05,0.0,0.0,0.0,1.88387824252e-05,0.0,0.0,0.0,4.4903827504e-05,-0.0238987300545,-0.00904548261315,-0.00474564731121,0.01,0.0,0.0,0.0,0.01,0.0,0.0,0.0,0.01,0.153844758868,9.46827507019,2.43987798691,0.01,0.0,0.0,0.0,0.01,0.0,0.0,0.0,0.01
1585289618434448658,8249,1585289618434149549,waist_imu_link,-0.492656797171,0.619798541069,-0.472232490778,0.387473344803,2.10032245829e-05,0.0,0.0,0.0,1.88331948909e-05,0.0,0.0,0.0,4.49030513447e-05,-0.00409053545445,-0.00190862035379,-0.00176239013672,0.01,0.0,0.0,0.0,0.01,0.0,0.0,0.0,0.01,0.174167007208,9.52907180786,2.52360916138,0.01,0.0,0.0,0.0,0.01,0.0,0.0,0.0,0.01
1585289618458958370,8250,1585289618458777274,waist_imu_link,-0.492659151554,0.619729697704,-0.472263276577,0.387542814016,2.09860007543e-05,0.0,0.0,0.0,1.88166415664e-05,0.0,0.0,0.0,4.48982399697e-05,0.0127661097795,-0.00824017077684,0.000623241066933,0.01,0.0,0.0,0.0,0.01,0.0,0.0,0.0,0.01,0.142293572426,9.46883773804,2.46551084518,0.01,0.0,0.0,0.0,0.01,0.0,0.0,0.0,0.01
1585289618484386738,8251,1585289618484108537,waist_imu_link,-0.492737859488,0.619673669338,-0.472216367722,0.387589514256,2.09832191782e-05,0.0,0.0,0.0,1.88107411302e-05,0.0,0.0,0.0,4.48867804447e-05,-0.00629416620359,-0.0100584775209,-0.005595959723,0.01,0.0,0.0,0.0,0.01,0.0,0.0,0.0,0.01,0.157004743814,9.52098560333,2.4816532135,0.01,0.0,0.0,0.0,0.01,0.0,0.0,0.0,0.01
1585289618510091839,8252,1585289618509446697,waist_imu_link,-0.492797285318,0.619599878788,-0.472214609385,0.387634158134,2.09836682127e-05,0.0,0.0,0.0,1.88073134318e-05,0.0,0.0,0.0,4.48743375137e-05,0.00412424607202,-0.00382236437872,-0.00300527736545,0.01,0.0,0.0,0.0,0.01,0.0,0.0,0.0,0.01,0.140820205212,9.47629833221,2.4962952137,0.01,0.0,0.0,0.0,0.01,0.0,0.0,0.0,0.01
1585289618535049831,8253,1585289618534411572,waist_imu_link,-0.492835223675,0.61953908205,-0.472226440907,0.387668758631,2.09719161042e-05,0.0,0.0,0.0,1.87950980659e-05,0.0,0.0,0.0,4.48681323029e-05,0.00375044741668,-0.00516261067241,-0.00196377560496,0.01,0.0,0.0,0.0,0.01,0.0,0.0,0.0,0.01,0.130290880799,9.48312759399,2.53418111801,0.01,0.0,0.0,0.0,0.01,0.0,0.0,0.0,0.01
1585289618560248193,8254,1585289618559458546,waist_imu_link,-0.492922127247,0.619421720505,-0.47223302722,0.387737721205,2.09431047453e-05,0.0,0.0,0.0,1.8768854941e-05,0.0,0.0,0.0,4.48596880146e-05,0.00967368669808,-0.0125485928729,-0.00839307531714,0.01,0.0,0.0,0.0,0.01,0.0,0.0,0.0,0.01,0.146756336093,9.52025604248,2.5137720108,0.01,0.0,0.0,0.0,0.01,0.0,0.0,0.0,0.01
1585289618585359688,8255,1585289618584561993,waist_imu_link,-0.493044197559,0.619261682034,-0.472247689962,0.387820392847,2.09106482823e-05,0.0,0.0,0.0,1.87401553328e-05,0.0,0.0,0.0,4.48533690213e-05,-0.00101888307836,-0.011280592531,-0.00985630974174,0.01,0.0,0.0,0.0,0.01,0.0,0.0,0.0,0.01,0.0769634544849,9.49359893799,2.49050760269,0.01,0.0,0.0,0.0,0.01,0.0,0.0,0.0,0.01
1585289618610094489,8256,1585289618609454439,waist_imu_link,-0.493198364973,0.619087815285,-0.472294569016,0.387844771147,2.09189036103e-05,0.0,0.0,0.0,1.87440198748e-05,0.0,0.0,0.0,4.48461925954e-05,0.0213032532483,-0.00908568315208,-0.0210216604173,0.01,0.0,0.0,0.0,0.01,0.0,0.0,0.0,0.01,0.153316617012,9.64016532898,2.53387117386,0.01,0.0,0.0,0.0,0.01,0.0,0.0,0.0,0.01
1585289618634871098,8257,1585289618634201923,waist_imu_link,-0.493220359087,0.61853915453,-0.472692996264,0.388206541538,2.1030065066e-05,0.0,0.0,0.0,1.88306449434e-05,0.0,0.0,0.0,4.48401418036e-05,0.0513027533889,-0.0187116004527,-0.0214983485639,0.01,0.0,0.0,0.0,0.01,0.0,0.0,0.0,0.01,0.171134740114,9.41917800903,2.50650930405,0.01,0.0,0.0,0.0,0.01,0.0,0.0,0.0,0.01
1585289618660037067,8258,1585289618659133366,waist_imu_link,-0.493286341429,0.617989122868,-0.47311604023,0.388483345509,2.11367219531e-05,0.0,0.0,0.0,1.8912050239e-05,0.0,0.0,0.0,4.48254110313e-05,0.0609064213932,-0.018203612417,-0.022753816098,0.01,0.0,0.0,0.0,0.01,0.0,0.0,0.0,0.01,0.107275396585,9.528840065,2.42862844467,0.01,0.0,0.0,0.0,0.01,0.0,0.0,0.0,0.01
1585289618685172015,8259,1585289618684354521,waist_imu_link,-0.493373572826,0.617496788502,-0.473416388035,0.388789415359,2.12389169401e-05,0.0,0.0,0.0,1.89889895708e-05,0.0,0.0,0.0,4.48063809053e-05,0.0261571481824,-0.0223474670202,-0.0136569738388,0.01,0.0,0.0,0.0,0.01,0.0,0.0,0.0,0.01,0.152238756418,9.42909431458,2.41946434975,0.01,0.0,0.0,0.0,0.01,0.0,0.0,0.0,0.01
1585289618709899564,8260,1585289618709262378,waist_imu_link,-0.493570953608,0.61733007431,-0.473381906748,0.388845443726,2.13375176187e-05,0.0,0.0,0.0,1.90641551145e-05,0.0,0.0,0.0,4.47958478951e-05,0.00224188878201,-0.0157056991011,-0.011617410928,0.01,0.0,0.0,0.0,0.01,0.0,0.0,0.0,0.01,0.142456009984,9.61087417603,2.44710755348,0.01,0.0,0.0,0.0,0.01,0.0,0.0,0.0,0.01
1585289618734889436,8261,1585289618734095800,waist_imu_link,-0.493662297726,0.616908609867,-0.47365424037,0.389066964388,2.14322822009e-05,0.0,0.0,0.0,1.91375671882e-05,0.0,0.0,0.0,4.47949416986e-05,0.0554775781929,-0.0206594280899,-0.0272029414773,0.01,0.0,0.0,0.0,0.01,0.0,0.0,0.0,0.01,0.150234058499,9.60055446625,2.52391052246,0.01,0.0,0.0,0.0,0.01,0.0,0.0,0.0,0.01
1585289618759949090,8262,1585289618759001604,waist_imu_link,-0.493644714355,0.61635184288,-0.47404897213,0.389490485191,2.15228571483e-05,0.0,0.0,0.0,1.92091567099e-05,0.0,0.0,0.0,4.48047879501e-05,0.0515504777431,-0.0248578079045,-0.00975821912289,0.01,0.0,0.0,0.0,0.01,0.0,0.0,0.0,0.01,0.110186934471,9.51208591461,2.42494368553,0.01,0.0,0.0,0.0,0.01,0.0,0.0,0.0,0.01
1585289618784499210,8263,1585289618783889913,waist_imu_link,-0.493663579226,0.615990757942,-0.474193364382,0.389862060547,2.16073508265e-05,0.0,0.0,0.0,1.92759206338e-05,0.0,0.0,0.0,4.48161580745e-05,0.0276883039623,-0.0253150127828,-0.0113176517189,0.01,0.0,0.0,0.0,0.01,0.0,0.0,0.0,0.01,0.174276888371,9.50333404541,2.34379720688,0.01,0.0,0.0,0.0,0.01,0.0,0.0,0.0,0.01
1585289618809639039,8264,1585289618808886540,waist_imu_link,-0.493796497583,0.615505158901,-0.474380731583,0.390232503414,2.16855742753e-05,0.0,0.0,0.0,1.93361583175e-05,0.0,0.0,0.0,4.48187506904e-05,0.0424366444349,-0.0359915494919,-0.023454722017,0.01,0.0,0.0,0.0,0.01,0.0,0.0,0.0,0.01,0.207664325833,9.48630809784,2.37619423866,0.01,0.0,0.0,0.0,0.01,0.0,0.0,0.0,0.01
1585289618834667460,8265,1585289618833982323,waist_imu_link,-0.494029194117,0.615045070648,-0.47446718812,0.390558153391,2.17569910914e-05,0.0,0.0,0.0,1.93914952257e-05,0.0,0.0,0.0,4.48252647395e-05,0.00775048416108,-0.0306296534836,-0.0129736103117,0.01,0.0,0.0,0.0,0.01,0.0,0.0,0.0,0.01,0.177814289927,9.48258972168,2.37734770775,0.01,0.0,0.0,0.0,0.01,0.0,0.0,0.0,0.01
1585289618859540755,8266,1585289618858877569,waist_imu_link,-0.494291096926,0.61487197876,-0.474281668663,0.390724539757,2.1820745874e-05,0.0,0.0,0.0,1.94445117832e-05,0.0,0.0,0.0,4.48553033241e-05,-0.00513370707631,-0.028851730749,-0.0086810477078,0.01,0.0,0.0,0.0,0.01,0.0,0.0,0.0,0.01,0.136904016137,9.57616043091,2.29317593575,0.01,0.0,0.0,0.0,0.01,0.0,0.0,0.0,0.01
1585289618884681779,8267,1585289618884064104,waist_imu_link,-0.49455460906,0.61474531889,-0.474104911089,0.39080503583,2.18747499013e-05,0.0,0.0,0.0,1.94887691188e-05,0.0,0.0,0.0,4.48796690374e-05,-0.0150129729882,-0.0280953496695,-0.00979030504823,0.01,0.0,0.0,0.0,0.01,0.0,0.0,0.0,0.01,0.0885998681188,9.56356811523,2.35465955734,0.01,0.0,0.0,0.0,0.01,0.0,0.0,0.0,0.01
1585289618910420369,8268,1585289618909738118,waist_imu_link,-0.494729578495,0.614762842655,-0.473885715008,0.390821933746,2.19191697833e-05,0.0,0.0,0.0,1.95214003193e-05,0.0,0.0,0.0,4.48803639235e-05,-0.0223554018885,-0.00399769097567,0.0086075514555,0.01,0.0,0.0,0.0,0.01,0.0,0.0,0.0,0.01,0.117927603424,9.49326038361,2.39390397072,0.01,0.0,0.0,0.0,0.01,0.0,0.0,0.0,0.01
1585289618934457841,8269,1585289618933737957,waist_imu_link,-0.494796156883,0.614900708199,-0.47362819314,0.390832781792,2.1951750188e-05,0.0,0.0,0.0,1.9546265863e-05,0.0,0.0,0.0,4.48907872148e-05,-0.0168772041798,-0.00790856219828,0.0109414122999,0.01,0.0,0.0,0.0,0.01,0.0,0.0,0.0,0.01,0.0934944748878,9.51811695099,2.38199973106,0.01,0.0,0.0,0.0,0.01,0.0,0.0,0.0,0.01
1585289618960325299,8270,1585289618959492496,waist_imu_link,-0.494856864214,0.615015923977,-0.473336368799,0.390928179026,2.19740251476e-05,0.0,0.0,0.0,1.95632580628e-05,0.0,0.0,0.0,4.49032138912e-05,-0.0290774554014,-0.0159297212958,0.0139649603516,0.01,0.0,0.0,0.0,0.01,0.0,0.0,0.0,0.01,0.1382612288,9.46800613403,2.33135652542,0.01,0.0,0.0,0.0,0.01,0.0,0.0,0.0,0.01
1585289618984680685,8271,1585289618984414364,waist_imu_link,-0.494952499866,0.615523695946,-0.472721844912,0.390751451254,2.19890363126e-05,0.0,0.0,0.0,1.9572890972e-05,0.0,0.0,0.0,4.49058065071e-05,-0.0788289755583,0.00417644483969,0.0200902745128,0.01,0.0,0.0,0.0,0.01,0.0,0.0,0.0,0.01,0.0858425050974,9.5401058197,2.40764808655,0.01,0.0,0.0,0.0,0.01,0.0,0.0,0.0,0.01
1585289619009925437,8272,1585289619009449838,waist_imu_link,-0.495012938976,0.616016924381,-0.472305595875,0.390400975943,2.19963854441e-05,0.0,0.0,0.0,1.9577462591e-05,0.0,0.0,0.0,4.4914518997e-05,-0.0444814451039,0.0217889863998,0.0175009723753,0.01,0.0,0.0,0.0,0.01,0.0,0.0,0.0,0.01,0.0282024461776,9.50975227356,2.51414632797,0.01,0.0,0.0,0.0,0.01,0.0,0.0,0.0,0.01
1585289619035736485,8273,1585289619035090413,waist_imu_link,-0.494945257902,0.616754889488,-0.47180634737,0.389924824238,2.2102469355e-05,0.0,0.0,0.0,1.96595871547e-05,0.0,0.0,0.0,4.49194482182e-05,-0.0642553195357,0.029978306964,0.0371511131525,0.01,0.0,0.0,0.0,0.01,0.0,0.0,0.0,0.01,0.120901592076,9.59538936615,2.50357484818,0.01,0.0,0.0,0.0,0.01,0.0,0.0,0.0,0.01
1585289619060475558,8274,1585289619059694127,waist_imu_link,-0.494806230068,0.617470026016,-0.471325814724,0.389550477266,2.22038211322e-05,0.0,0.0,0.0,1.97398424341e-05,0.0,0.0,0.0,4.49368935163e-05,-0.0904083475471,0.0490386076272,0.0586621649563,0.01,0.0,0.0,0.0,0.01,0.0,0.0,0.0,0.01,0.0505930706859,9.24906158447,2.44902992249,0.01,0.0,0.0,0.0,0.01,0.0,0.0,0.0,0.01
1585289619085485113,8275,1585289619084683786,waist_imu_link,-0.494850069284,0.617684900761,-0.471109420061,0.389415979385,2.23128593249e-05,0.0,0.0,0.0,1.98270750201e-05,0.0,0.0,0.0,4.49608813091e-05,-0.0159130431712,-0.00164315733127,0.0219780951738,0.01,0.0,0.0,0.0,0.01,0.0,0.0,0.0,0.01,0.195935726166,9.42210006714,2.44910979271,0.01,0.0,0.0,0.0,0.01,0.0,0.0,0.0,0.01
1585289619110496656,8276,1585289619109783639,waist_imu_link,-0.494817972183,0.618352472782,-0.470598816872,0.3890145123,2.24353685549e-05,0.0,0.0,0.0,1.99226076344e-05,0.0,0.0,0.0,4.49727959641e-05,-0.077802233398,0.0266454275697,0.0173236578703,0.01,0.0,0.0,0.0,0.01,0.0,0.0,0.0,0.01,0.183890223503,9.56210517883,2.43338179588,0.01,0.0,0.0,0.0,0.01,0.0,0.0,0.0,0.01
1585289619135385264,8277,1585289619134766939,waist_imu_link,-0.494806349277,0.618608593941,-0.470535993576,0.388697773218,2.25591029788e-05,0.0,0.0,0.0,2.00158178661e-05,0.0,0.0,0.0,4.4966521671e-05,-0.00856384634972,0.0219444986433,-0.000590961426497,0.01,0.0,0.0,0.0,0.01,0.0,0.0,0.0,0.01,0.185598269105,9.46482181549,2.5353782177,0.01,0.0,0.0,0.0,0.01,0.0,0.0,0.0,0.01
1585289619160454256,8278,1585289619159792503,waist_imu_link,-0.494804382324,0.618885219097,-0.470378786325,0.388450205326,2.26798749935e-05,0.0,0.0,0.0,2.01053647072e-05,0.0,0.0,0.0,4.4954115313e-05,-0.0266260169446,0.00292792986147,0.00227753445506,0.01,0.0,0.0,0.0,0.01,0.0,0.0,0.0,0.01,0.163730934262,9.59466075897,2.48585486412,0.01,0.0,0.0,0.0,0.01,0.0,0.0,0.0,0.01
1585289619185707924,8279,1585289619184868724,waist_imu_link,-0.494786918163,0.618979275227,-0.470329642296,0.388382017612,2.27973005832e-05,0.0,0.0,0.0,2.01937859141e-05,0.0,0.0,0.0,4.49520428457e-05,-0.00669315829873,0.00752297742292,0.00194105505943,0.01,0.0,0.0,0.0,0.01,0.0,0.0,0.0,0.01,0.144086241722,9.460521698,2.563539505,0.01,0.0,0.0,0.0,0.01,0.0,0.0,0.0,0.01
1585289619210348394,8280,1585289619209589927,waist_imu_link,-0.494768798351,0.619061768055,-0.470322936773,0.388281792402,2.2910680798e-05,0.0,0.0,0.0,2.02806263568e-05,0.0,0.0,0.0,4.49607675266e-05,-0.00794709008187,0.00781731680036,0.000168982893229,0.01,0.0,0.0,0.0,0.01,0.0,0.0,0.0,0.01,0.15656748414,9.4994058609,2.59085249901,0.01,0.0,0.0,0.0,0.01,0.0,0.0,0.0,0.01
1585289619235237328,8281,1585289619234570916,waist_imu_link,-0.494717121124,0.619130134583,-0.470372408628,0.388178676367,2.30187416801e-05,0.0,0.0,0.0,2.03602680234e-05,0.0,0.0,0.0,4.49533432173e-05,0.00362874241546,0.00916559714824,-0.0017529129982,0.01,0.0,0.0,0.0,0.01,0.0,0.0,0.0,0.01,0.127106130123,9.50181007385,2.55424928665,0.01,0.0,0.0,0.0,0.01,0.0,0.0,0.0,0.01
1585289619260366596,8282,1585289619259580748,waist_imu_link,-0.494678467512,0.619121849537,-0.47044634819,0.388151496649,2.31215076115e-05,0.0,0.0,0.0,2.04337593386e-05,0.0,0.0,0.0,4.49362473941e-05,0.000974624417722,0.0025675825309,-5.34169375896e-05,0.01,0.0,0.0,0.0,0.01,0.0,0.0,0.0,0.01,0.181579947472,9.48113441467,2.58686590195,0.01,0.0,0.0,0.0,0.01,0.0,0.0,0.0,0.01
1585289619284993863,8283,1585289619284382148,waist_imu_link,-0.494629949331,0.619145095348,-0.47046855092,0.388149470091,2.32179545496e-05,0.0,0.0,0.0,2.05018033157e-05,0.0,0.0,0.0,4.49177577351e-05,0.00293139670976,0.00289351632819,0.0028150267899,0.01,0.0,0.0,0.0,0.01,0.0,0.0,0.0,0.01,0.186956018209,9.46326255798,2.55599832535,0.01,0.0,0.0,0.0,0.01,0.0,0.0,0.0,0.01
1585289619310358090,8284,1585289619309713425,waist_imu_link,-0.494647622108,0.619135320187,-0.470449209213,0.388165891171,2.33083506959e-05,0.0,0.0,0.0,2.05691564705e-05,0.0,0.0,0.0,4.49225569191e-05,-0.00188454054296,-0.00719018373638,-0.00662281736732,0.01,0.0,0.0,0.0,0.01,0.0,0.0,0.0,0.01,0.205603539944,9.50608444214,2.52111721039,0.01,0.0,0.0,0.0,0.01,0.0,0.0,0.0,0.01
1585289619335235735,8285,1585289619334634136,waist_imu_link,-0.494778901339,0.619068682194,-0.470391064882,0.388175368309,2.33911396682e-05,0.0,0.0,0.0,2.06288130506e-05,0.0,0.0,0.0,4.49186883135e-05,-0.00637302640826,-0.0101593034342,-0.008400272578,0.01,0.0,0.0,0.0,0.01,0.0,0.0,0.0,0.01,0.19350515306,9.50643062592,2.48825192451,0.01,0.0,0.0,0.0,0.01,0.0,0.0,0.0,0.01
1585289619360343894,8286,1585289619359577271,waist_imu_link,-0.494921803474,0.619030058384,-0.470314085484,0.388148099184,2.3466339753e-05,0.0,0.0,0.0,2.06854686169e-05,0.0,0.0,0.0,4.49313222366e-05,-0.0101095633581,-0.00767646823078,-0.00468502938747,0.01,0.0,0.0,0.0,0.01,0.0,0.0,0.0,0.01,0.11342613399,9.48954772949,2.47860860825,0.01,0.0,0.0,0.0,0.01,0.0,0.0,0.0,0.01
1585289619385250703,8287,1585289619384583022,waist_imu_link,-0.49505802989,0.618971407413,-0.470243513584,0.388153344393,2.35320857296e-05,0.0,0.0,0.0,2.07312132525e-05,0.0,0.0,0.0,4.49253730364e-05,0.000430485000834,-0.014448877424,-0.0111911147833,0.01,0.0,0.0,0.0,0.01,0.0,0.0,0.0,0.01,0.152061164379,9.46294116974,2.53881669044,0.01,0.0,0.0,0.0,0.01,0.0,0.0,0.0,0.01
1585289619410273621,8288,1585289619409614496,waist_imu_link,-0.495238929987,0.618718028069,-0.470307797194,0.388248592615,2.35884669988e-05,0.0,0.0,0.0,2.07684912498e-05,0.0,0.0,0.0,4.4912995124e-05,0.0113505180925,-0.0174780283123,-0.0189151056111,0.01,0.0,0.0,0.0,0.01,0.0,0.0,0.0,0.01,0.0965358018875,9.49331092834,2.53915762901,0.01,0.0,0.0,0.0,0.01,0.0,0.0,0.0,0.01
1585289619435957358,8289,1585289619434539858,waist_imu_link,-0.495422512293,0.618499696255,-0.470351308584,0.388309657574,2.36340328333e-05,0.0,0.0,0.0,2.07983043011e-05,0.0,0.0,0.0,4.49063388467e-05,0.00759387807921,-0.0151599291712,-0.0155222080648,0.01,0.0,0.0,0.0,0.01,0.0,0.0,0.0,0.01,0.150171607733,9.53882789612,2.46882557869,0.01,0.0,0.0,0.0,0.01,0.0,0.0,0.0,0.01
1585289619459261893,8290,1585289619458854296,waist_imu_link,-0.495541900396,0.618292748928,-0.470413178205,0.388411968946,2.36691367717e-05,0.0,0.0,0.0,2.08208718443e-05,0.0,0.0,0.0,4.49039453502e-05,0.0102704754099,-0.0141196455806,-0.0119110830128,0.01,0.0,0.0,0.0,0.01,0.0,0.0,0.0,0.01,0.179287940264,9.49191856384,2.5142121315,0.01,0.0,0.0,0.0,0.01,0.0,0.0,0.0,0.01
1585289619484029929,8291,1585289619483758907,waist_imu_link,-0.495648086071,0.618147194386,-0.470426470041,0.38849195838,2.36913182671e-05,0.0,0.0,0.0,2.08316669606e-05,0.0,0.0,0.0,4.48922135599e-05,0.00627998821437,-0.0124668870121,-0.00933957844973,0.01,0.0,0.0,0.0,0.01,0.0,0.0,0.0,0.01,0.171055197716,9.50743675232,2.4981315136,0.01,0.0,0.0,0.0,0.01,0.0,0.0,0.0,0.01
1585289619508916723,8292,1585289619508730185,waist_imu_link,-0.495702266693,0.618073105812,-0.470427274704,0.388539791107,2.37008150436e-05,0.0,0.0,0.0,2.08326422394e-05,0.0,0.0,0.0,4.4880453324e-05,-0.0029384791851,-0.00407295767218,-0.00122574716806,0.01,0.0,0.0,0.0,0.01,0.0,0.0,0.0,0.01,0.120479799807,9.49043655396,2.49240756035,0.01,0.0,0.0,0.0,0.01,0.0,0.0,0.0,0.01
1585289619534047807,8293,1585289619533841316,waist_imu_link,-0.495791435242,0.618089139462,-0.470336198807,0.388510644436,2.36960768145e-05,0.0,0.0,0.0,2.08218918233e-05,0.0,0.0,0.0,4.48643815435e-05,-0.00674377009273,-0.00871247239411,-0.00328795611858,0.01,0.0,0.0,0.0,0.01,0.0,0.0,0.0,0.01,0.119458116591,9.5434513092,2.54223489761,0.01,0.0,0.0,0.0,0.01,0.0,0.0,0.0,0.01
1585289619559140566,8294,1585289619558793919,waist_imu_link,-0.495836287737,0.618071138859,-0.47028875351,0.388539612293,2.36792796704e-05,0.0,0.0,0.0,2.08041092413e-05,0.0,0.0,0.0,4.48596514417e-05,-0.0017902883701,-0.00586179411039,0.00133338943124,0.01,0.0,0.0,0.0,0.01,0.0,0.0,0.0,0.01,0.152961671352,9.51993560791,2.4952082634,0.01,0.0,0.0,0.0,0.01,0.0,0.0,0.0,0.01
1585289619584586376,8295,1585289619584121612,waist_imu_link,-0.495840400457,0.618069350719,-0.470267027617,0.388563483953,2.36455492495e-05,0.0,0.0,0.0,2.07711326296e-05,0.0,0.0,0.0,4.48432708229e-05,-0.00333588104695,-0.00104565918446,0.00117006897926,0.01,0.0,0.0,0.0,0.01,0.0,0.0,0.0,0.01,0.106411129236,9.46634578705,2.49844837189,0.01,0.0,0.0,0.0,0.01,0.0,0.0,0.0,0.01
1585289619609863016,8296,1585289619609164004,waist_imu_link,-0.495876133442,0.618142724037,-0.470175743103,0.388511538506,2.3595123276e-05,0.0,0.0,0.0,2.07272024188e-05,0.0,0.0,0.0,4.48359359142e-05,-0.0136561300606,-0.00441787112504,0.00120710581541,0.01,0.0,0.0,0.0,0.01,0.0,0.0,0.0,0.01,0.140982702374,9.51084518433,2.52523422241,0.01,0.0,0.0,0.0,0.01,0.0,0.0,0.0,0.01
1585289619635040486,8297,1585289619634382359,waist_imu_link,-0.495927542448,0.6181858778,-0.470072180033,0.388502627611,2.3532429109e-05,0.0,0.0,0.0,2.06748990338e-05,0.0,0.0,0.0,4.48341885398e-05,-0.00701005710289,-0.00446324981749,0.0057799257338,0.01,0.0,0.0,0.0,0.01,0.0,0.0,0.0,0.01,0.137319937348,9.4996919632,2.52575111389,0.01,0.0,0.0,0.0,0.01,0.0,0.0,0.0,0.01
1585289619659742401,8298,1585289619659098860,waist_imu_link,-0.495939433575,0.618275284767,-0.469945281744,0.388498783112,2.34539862225e-05,0.0,0.0,0.0,2.06123552223e-05,0.0,0.0,0.0,4.48424946635e-05,-0.0076412553899,-0.00130718154833,0.00672890990973,0.01,0.0,0.0,0.0,0.01,0.0,0.0,0.0,0.01,0.152951344848,9.48165130615,2.55455422401,0.01,0.0,0.0,0.0,0.01,0.0,0.0,0.0,0.01
1585289619684938131,8299,1585289619684151708,waist_imu_link,-0.495941460133,0.618328213692,-0.46986284852,0.388511627913,2.33540932997e-05,0.0,0.0,0.0,2.05364419649e-05,0.0,0.0,0.0,4.48673398889e-05,-0.00486756488681,-0.00653866585344,0.002128187567,0.01,0.0,0.0,0.0,0.01,0.0,0.0,0.0,0.01,0.137718573213,9.46823787689,2.54115366936,0.01,0.0,0.0,0.0,0.01,0.0,0.0,0.0,0.01
1585289619709615595,8300,1585289619709064546,waist_imu_link,-0.496045589447,0.618326425552,-0.469723135233,0.388550430536,2.32349264311e-05,0.0,0.0,0.0,2.04407813454e-05,0.0,0.0,0.0,4.48653893315e-05,-0.00900064315647,-0.0150788035244,-0.00312879309058,0.01,0.0,0.0,0.0,0.01,0.0,0.0,0.0,0.01,0.143068701029,9.55095863342,2.53689527512,0.01,0.0,0.0,0.0,0.01,0.0,0.0,0.0,0.01
1585289619734564069,8301,1585289619734021974,waist_imu_link,-0.496115922928,0.618289768696,-0.46963980794,0.388619661331,2.3160606129e-05,0.0,0.0,0.0,2.03794546004e-05,0.0,0.0,0.0,4.48599033887e-05,0.00301110139117,-0.00939814653248,0.000895127654076,0.01,0.0,0.0,0.0,0.01,0.0,0.0,0.0,0.01,0.164484471083,9.51679039001,2.60916662216,0.01,0.0,0.0,0.0,0.01,0.0,0.0,0.0,0.01
1585289619759646332,8302,1585289619758987683,waist_imu_link,-0.496120691299,0.618233084679,-0.469624131918,0.38872268796,2.31242952832e-05,0.0,0.0,0.0,2.03464576704e-05,0.0,0.0,0.0,4.48475254763e-05,0.00824543181807,-0.00932971574366,0.000205993652344,0.01,0.0,0.0,0.0,0.01,0.0,0.0,0.0,0.01,0.138939857483,9.4336643219,2.58218741417,0.01,0.0,0.0,0.0,0.01,0.0,0.0,0.0,0.01
1585289619784661745,8303,1585289619784035689,waist_imu_link,-0.496150702238,0.618156552315,-0.469606101513,0.388827890158,2.30553593324e-05,0.0,0.0,0.0,2.02884509367e-05,0.0,0.0,0.0,4.48360618877e-05,0.00505590671673,-0.0113619407639,-4.94420528412e-05,0.01,0.0,0.0,0.0,0.01,0.0,0.0,0.0,0.01,0.127671316266,9.45471477509,2.48680257797,0.01,0.0,0.0,0.0,0.01,0.0,0.0,0.0,0.01
1585289619810421638,8304,1585289619809387744,waist_imu_link,-0.496214479208,0.61807924509,-0.469577401876,0.388904035091,2.29705121156e-05,0.0,0.0,0.0,2.0218385288e-05,0.0,0.0,0.0,4.48256873603e-05,-9.89168183878e-05,-0.00815797876567,-0.00242244824767,0.01,0.0,0.0,0.0,0.01,0.0,0.0,0.0,0.01,0.125070780516,9.52638626099,2.48336720467,0.01,0.0,0.0,0.0,0.01,0.0,0.0,0.0,0.01
1585289619834564785,8305,1585289619833964060,waist_imu_link,-0.49625363946,0.618056058884,-0.469544112682,0.388931185007,2.28658362634e-05,0.0,0.0,0.0,2.01345763367e-05,0.0,0.0,0.0,4.48232776091e-05,0.000889105838723,-0.00580669008195,0.00125633180141,0.01,0.0,0.0,0.0,0.01,0.0,0.0,0.0,0.01,0.121642321348,9.45392513275,2.58936142921,0.01,0.0,0.0,0.0,0.01,0.0,0.0,0.0,0.01
1585289619859767029,8306,1585289619859115165,waist_imu_link,-0.496280014515,0.618047297001,-0.46951186657,0.388950318098,2.28443130811e-05,0.0,0.0,0.0,2.01175211501e-05,0.0,0.0,0.0,4.4833022269e-05,0.00121688202489,-0.00604124180973,-0.00088457390666,0.01,0.0,0.0,0.0,0.01,0.0,0.0,0.0,0.01,0.16826108098,9.46671295166,2.55870127678,0.01,0.0,0.0,0.0,0.01,0.0,0.0,0.0,0.01
1585289619884691964,8307,1585289619883954422,waist_imu_link,-0.496309548616,0.618031859398,-0.469481319189,0.388974010944,2.28133357908e-05,0.0,0.0,0.0,2.00925987152e-05,0.0,0.0,0.0,4.48394997451e-05,-0.00250813504681,-0.00450063217431,-0.000572916120291,0.01,0.0,0.0,0.0,0.01,0.0,0.0,0.0,0.01,0.16960029304,9.51475811005,2.48408555984,0.01,0.0,0.0,0.0,0.01,0.0,0.0,0.0,0.01
1585289619909732589,8308,1585289619908951365,waist_imu_link,-0.496335893869,0.6180306077,-0.469467282295,0.388959169388,2.27662521788e-05,0.0,0.0,0.0,2.00544307761e-05,0.0,0.0,0.0,4.48418566687e-05,-0.00172521104105,0.000543797854334,-0.000853210687637,0.01,0.0,0.0,0.0,0.01,0.0,0.0,0.0,0.01,0.129254177213,9.54180335999,2.51553249359,0.01,0.0,0.0,0.0,0.01,0.0,0.0,0.0,0.01
1585289619934318305,8309,1585289619933705547,waist_imu_link,-0.496289610863,0.618063390255,-0.469475835562,0.388956069946,2.27060449725e-05,0.0,0.0,0.0,2.00035029405e-05,0.0,0.0,0.0,4.48282759125e-05,0.00556526891887,0.00208022538573,0.00606556981802,0.01,0.0,0.0,0.0,0.01,0.0,0.0,0.0,0.01,0.0996174663305,9.49558258057,2.56825304031,0.01,0.0,0.0,0.0,0.01,0.0,0.0,0.0,0.01
1585289619959548683,8310,1585289619958740167,waist_imu_link,-0.496154844761,0.618066251278,-0.469576895237,0.389001399279,2.2635258024e-05,0.0,0.0,0.0,1.99440576707e-05,0.0,0.0,0.0,4.48117774475e-05,0.0112889790908,0.00531735736877,0.00636947713792,0.01,0.0,0.0,0.0,0.01,0.0,0.0,0.0,0.01,0.134116083384,9.47375106812,2.48531794548,0.01,0.0,0.0,0.0,0.01,0.0,0.0,0.0,0.01
1585289619984456289,8311,1585289619983733714,waist_imu_link,-0.496053516865,0.618059098721,-0.469677746296,0.389020264149,2.25692479093e-05,0.0,0.0,0.0,1.98895578767e-05,0.0,0.0,0.0,4.48019068142e-05,0.00479070888832,0.00433375360444,-0.00164152309299,0.01,0.0,0.0,0.0,0.01,0.0,0.0,0.0,0.01,0.168469905853,9.50385761261,2.45767378807,0.01,0.0,0.0,0.0,0.01,0.0,0.0,0.0,0.01
1585289620009470289,8312,1585289620008724092,waist_imu_link,-0.496000409126,0.618076682091,-0.469745218754,0.3889785707,2.25571056892e-05,0.0,0.0,0.0,1.98766394974e-05,0.0,0.0,0.0,4.47899312042e-05,-0.00014528806787,0.00688221678138,-0.00223694369197,0.01,0.0,0.0,0.0,0.01,0.0,0.0,0.0,0.01,0.199688896537,9.47286510468,2.50635242462,0.01,0.0,0.0,0.0,0.01,0.0,0.0,0.0,0.01
1585289620034345498,8313,1585289620033717033,waist_imu_link,-0.495932042599,0.618131399155,-0.469811618328,0.388898432255,2.25292249088e-05,0.0,0.0,0.0,1.98515606115e-05,0.0,0.0,0.0,4.47783822787e-05,0.00287181558087,0.0123391347006,0.00227409601212,0.01,0.0,0.0,0.0,0.01,0.0,0.0,0.0,0.01,0.15002925694,9.4936876297,2.52782154083,0.01,0.0,0.0,0.0,0.01,0.0,0.0,0.0,0.01
1585289620059445111,8314,1585289620058799818,waist_imu_link,-0.495830327272,0.618220388889,-0.469866931438,0.388819813728,2.2485282507e-05,0.0,0.0,0.0,1.98139107892e-05,0.0,0.0,0.0,4.47651469338e-05,-0.00520438002422,0.00827841833234,0.00360191613436,0.01,0.0,0.0,0.0,0.01,0.0,0.0,0.0,0.01,0.119981586933,9.49503135681,2.48286867142,0.01,0.0,0.0,0.0,0.01,0.0,0.0,0.0,0.01
1585289620084796399,8315,1585289620083985177,waist_imu_link,-0.495750814676,0.618289589882,-0.469905078411,0.388765215874,2.24233035444e-05,0.0,0.0,0.0,1.97629260623e-05,0.0,0.0,0.0,4.47554266559e-05,0.00235368590802,0.00980773102492,0.00368475541472,0.01,0.0,0.0,0.0,0.01,0.0,0.0,0.0,0.01,0.163130968809,9.51694869995,2.49857258797,0.01,0.0,0.0,0.0,0.01,0.0,0.0,0.0,0.01
1585289620109478326,8316,1585289620108791413,waist_imu_link,-0.495602577925,0.618370950222,-0.469970911741,0.388745188713,2.23507549987e-05,0.0,0.0,0.0,1.97045840766e-05,0.0,0.0,0.0,4.47503755248e-05,0.0029743462801,0.0123313423246,0.00684014335275,0.01,0.0,0.0,0.0,0.01,0.0,0.0,0.0,0.01,0.197319626808,9.47249794006,2.49424004555,0.01,0.0,0.0,0.0,0.01,0.0,0.0,0.0,0.01
1585289620134250940,8317,1585289620133628635,waist_imu_link,-0.49545481801,0.618463099003,-0.470050692558,0.388690531254,2.22600723642e-05,0.0,0.0,0.0,1.96335756585e-05,0.0,0.0,0.0,4.47533907615e-05,0.000938951154239,0.0143334474415,0.00589035078883,0.01,0.0,0.0,0.0,0.01,0.0,0.0,0.0,0.01,0.156401574612,9.52873706818,2.50397109985,0.01,0.0,0.0,0.0,0.01,0.0,0.0,0.0,0.01
1585289620159424168,8318,1585289620158801349,waist_imu_link,-0.495343238115,0.618583858013,-0.470083087683,0.388601481915,2.21495326487e-05,0.0,0.0,0.0,1.95451077195e-05,0.0,0.0,0.0,4.47436989293e-05,-0.00391034409404,0.0087910965085,0.00296565145254,0.01,0.0,0.0,0.0,0.01,0.0,0.0,0.0,0.01,0.164342224598,9.46900653839,2.52977705002,0.01,0.0,0.0,0.0,0.01,0.0,0.0,0.0,0.01
1585289620184212789,8319,1585289620183484487,waist_imu_link,-0.49527657032,0.618647634983,-0.470115512609,0.388545572758,2.20187802817e-05,0.0,0.0,0.0,1.9440098647e-05,0.0,0.0,0.0,4.4728378926e-05,-0.000397017167415,0.00608722772449,0.000257316976786,0.01,0.0,0.0,0.0,0.01,0.0,0.0,0.0,0.01,0.181271880865,9.52515220642,2.49907255173,0.01,0.0,0.0,0.0,0.01,0.0,0.0,0.0,0.01
1585289620209108999,8320,1585289620208451952,waist_imu_link,-0.495170742273,0.618701636791,-0.470179498196,0.388517141342,2.19059100564e-05,0.0,0.0,0.0,1.93494789993e-05,0.0,0.0,0.0,4.47149688436e-05,0.00280984980054,0.00887638889253,0.00234687328339,0.01,0.0,0.0,0.0,0.01,0.0,0.0,0.0,0.01,0.181500792503,9.55566310883,2.49196147919,0.01,0.0,0.0,0.0,0.01,0.0,0.0,0.0,0.01
1585289620234266087,8321,1585289620233649070,waist_imu_link,-0.495032340288,0.618763446808,-0.470239192247,0.388522565365,2.17827242268e-05,0.0,0.0,0.0,1.92506223101e-05,0.0,0.0,0.0,4.47001405435e-05,0.00504465773702,0.00704306829721,0.00653055123985,0.01,0.0,0.0,0.0,0.01,0.0,0.0,0.0,0.01,0.182759359479,9.47080898285,2.53591036797,0.01,0.0,0.0,0.0,0.01,0.0,0.0,0.0,0.01
1585289620259086310,8322,1585289620258530987,waist_imu_link,-0.494958668947,0.618810296059,-0.470252007246,0.388526499271,2.1598754151e-05,0.0,0.0,0.0,1.91052082531e-05,0.0,0.0,0.0,4.46900992363e-05,-0.00269999471493,-5.10092359036e-05,0.00143585726619,0.01,0.0,0.0,0.0,0.01,0.0,0.0,0.0,0.01,0.155498892069,9.4617767334,2.47451996803,0.01,0.0,0.0,0.0,0.01,0.0,0.0,0.0,0.01
1585289620284143469,8323,1585289620283424379,waist_imu_link,-0.494989603758,0.61879825592,-0.470213383436,0.388552904129,2.15099326734e-05,0.0,0.0,0.0,1.90337345457e-05,0.0,0.0,0.0,4.4676855764e-05,-0.00285677518696,-0.00688671786338,-0.00203294679523,0.01,0.0,0.0,0.0,0.01,0.0,0.0,0.0,0.01,0.223838418722,9.47398948669,2.49659514427,0.01,0.0,0.0,0.0,0.01,0.0,0.0,0.0,0.01
1585289620308804029,8324,1585289620308261280,waist_imu_link,-0.495027124882,0.618795752525,-0.470162063837,0.38857126236,2.14356712944e-05,0.0,0.0,0.0,1.89744904272e-05,0.0,0.0,0.0,4.46676271891e-05,-0.000347191118635,-0.00618802895769,-0.001937918365,0.01,0.0,0.0,0.0,0.01,0.0,0.0,0.0,0.01,0.206929907203,9.52745628357,2.50975871086,0.01,0.0,0.0,0.0,0.01,0.0,0.0,0.0,0.01
1585289620334376099,8325,1585289620333704034,waist_imu_link,-0.495021253824,0.618769109249,-0.470154345036,0.388630539179,2.12958447717e-05,0.0,0.0,0.0,1.88637414331e-05,0.0,0.0,0.0,4.46575411817e-05,0.00314622651786,-0.00674669351429,0.000535815954208,0.01,0.0,0.0,0.0,0.01,0.0,0.0,0.0,0.01,0.165469884872,9.46951389313,2.48612451553,0.01,0.0,0.0,0.0,0.01,0.0,0.0,0.0,0.01
1585289620360182195,8326,1585289620359379240,waist_imu_link,-0.495054066181,0.618765115738,-0.470097392797,0.388663858175,2.11288628321e-05,0.0,0.0,0.0,1.87342935014e-05,0.0,0.0,0.0,4.46646972893e-05,-0.00715289218351,-0.00590684218332,0.000404290854931,0.01,0.0,0.0,0.0,0.01,0.0,0.0,0.0,0.01,0.123244956136,9.4695930481,2.4703438282,0.01,0.0,0.0,0.0,0.01,0.0,0.0,0.0,0.01
1585289620385210765,8327,1585289620384409288,waist_imu_link,-0.495156168938,0.618746221066,-0.470015436411,0.388663113117,2.09494074841e-05,0.0,0.0,0.0,1.85927378907e-05,0.0,0.0,0.0,4.46570413514e-05,-0.00788623653352,-0.0111331902444,-0.00637538731098,0.01,0.0,0.0,0.0,0.01,0.0,0.0,0.0,0.01,0.168904811144,9.50277519226,2.52719664574,0.01,0.0,0.0,0.0,0.01,0.0,0.0,0.0,0.01
1585289620409183445,8328,1585289620408497142,waist_imu_link,-0.495272487402,0.61866825819,-0.469965010881,0.388700127602,2.07654780449e-05,0.0,0.0,0.0,1.84467691439e-05,0.0,0.0,0.0,4.46437816244e-05,0.00175364897586,-0.00998408161104,-0.00801984593272,0.01,0.0,0.0,0.0,0.01,0.0,0.0,0.0,0.01,0.178957492113,9.51903343201,2.52241635323,0.01,0.0,0.0,0.0,0.01,0.0,0.0,0.0,0.01
1585289620434292018,8329,1585289620433329400,waist_imu_link,-0.495301693678,0.618636667728,-0.469961047173,0.388717889786,2.06149661247e-05,0.0,0.0,0.0,1.83284007848e-05,0.0,0.0,0.0,4.46389824404e-05,-0.00137476995587,-0.000312340678647,-0.00148486718535,0.01,0.0,0.0,0.0,0.01,0.0,0.0,0.0,0.01,0.139424040914,9.49114990234,2.5148601532,0.01,0.0,0.0,0.0,0.01,0.0,0.0,0.0,0.01
1585289620459971044,8330,1585289620459270870,waist_imu_link,-0.4953353405,0.618622601032,-0.46995934844,0.388699293137,2.04002463236e-05,0.0,0.0,0.0,1.81589176617e-05,0.0,0.0,0.0,4.46317613142e-05,-0.00127219280694,-0.00603578239679,-0.00387469679117,0.01,0.0,0.0,0.0,0.01,0.0,0.0,0.0,0.01,0.115196689963,9.47599029541,2.5432498455,0.01,0.0,0.0,0.0,0.01,0.0,0.0,0.0,0.01
1585289620484904029,8331,1585289620484275146,waist_imu_link,-0.49544236064,0.618572533131,-0.469925582409,0.38868355751,2.01611730001e-05,0.0,0.0,0.0,1.79689313353e-05,0.0,0.0,0.0,4.46176279001e-05,-0.00360119063407,-0.00498098600656,-0.00519628077745,0.01,0.0,0.0,0.0,0.01,0.0,0.0,0.0,0.01,0.140144914389,9.51594829559,2.50003051758,0.01,0.0,0.0,0.0,0.01,0.0,0.0,0.0,0.01
1585289620510223391,8332,1585289620509319212,waist_imu_link,-0.495447158813,0.618543207645,-0.469951868057,0.388692200184,2.00116912181e-05,0.0,0.0,0.0,1.7849796976e-05,0.0,0.0,0.0,4.4601694284e-05,0.00666157342494,-0.00139040476643,0.00168773904443,0.01,0.0,0.0,0.0,0.01,0.0,0.0,0.0,0.01,0.158714711666,9.53523635864,2.55569267273,0.01,0.0,0.0,0.0,0.01,0.0,0.0,0.0,0.01
1585289620534066578,8333,1585289620533776015,waist_imu_link,-0.495404332876,0.618508458138,-0.469975054264,0.388774186373,1.99007349772e-05,0.0,0.0,0.0,1.77612538593e-05,0.0,0.0,0.0,4.45849966996e-05,0.011404518038,-0.00695046968758,0.000484045594931,0.01,0.0,0.0,0.0,0.01,0.0,0.0,0.0,0.01,0.169618949294,9.52906894684,2.54569363594,0.01,0.0,0.0,0.0,0.01,0.0,0.0,0.0,0.01
1585289620559165494,8334,1585289620558891820,waist_imu_link,-0.495384603739,0.61840981245,-0.470029145479,0.388890832663,1.97652321901e-05,0.0,0.0,0.0,1.76537659534e-05,0.0,0.0,0.0,4.45722571214e-05,0.00444385455921,-0.00574815459549,-0.00139632448554,0.01,0.0,0.0,0.0,0.01,0.0,0.0,0.0,0.01,0.15071798861,9.4630241394,2.46709132195,0.01,0.0,0.0,0.0,0.01,0.0,0.0,0.0,0.01
1585289620585692871,8335,1585289620584458455,waist_imu_link,-0.495433151722,0.618373453617,-0.470026046038,0.388890594244,1.96110731339e-05,0.0,0.0,0.0,1.75322990525e-05,0.0,0.0,0.0,4.45667549239e-05,-0.00595365092158,-0.00688829179853,-0.00607135146856,0.01,0.0,0.0,0.0,0.01,0.0,0.0,0.0,0.01,0.140607953072,9.44338130951,2.48247599602,0.01,0.0,0.0,0.0,0.01,0.0,0.0,0.0,0.01
1585289620609861113,8336,1585289620609202417,waist_imu_link,-0.495556235313,0.618366420269,-0.469949662685,0.388837248087,1.94705415659e-05,0.0,0.0,0.0,1.74218182601e-05,0.0,0.0,0.0,4.4562398679e-05,-0.00881557352841,-0.00686065293849,-0.00411360710859,0.01,0.0,0.0,0.0,0.01,0.0,0.0,0.0,0.01,0.10891931504,9.46531295776,2.52690148354,0.01,0.0,0.0,0.0,0.01,0.0,0.0,0.0,0.01
1585289620634862894,8337,1585289620634214090,waist_imu_link,-0.495646625757,0.618387579918,-0.469891607761,0.388758391142,1.93635189492e-05,0.0,0.0,0.0,1.73374017914e-05,0.0,0.0,0.0,4.45520322789e-05,-0.0104015944526,-0.00327316205949,-0.00522108003497,0.01,0.0,0.0,0.0,0.01,0.0,0.0,0.0,0.01,0.104535102844,9.53036880493,2.49131298065,0.01,0.0,0.0,0.0,0.01,0.0,0.0,0.0,0.01
1585289620659900418,8338,1585289620659276011,waist_imu_link,-0.495705515146,0.618410944939,-0.469862341881,0.388681590557,1.93533638596e-05,0.0,0.0,0.0,1.7332102777e-05,0.0,0.0,0.0,4.45532798229e-05,-0.00739085767418,0.00125792238396,-0.000136569142342,0.01,0.0,0.0,0.0,0.01,0.0,0.0,0.0,0.01,0.0748337283731,9.54599475861,2.53878641129,0.01,0.0,0.0,0.0,0.01,0.0,0.0,0.0,0.01
1585289620684871564,8339,1585289620684239172,waist_imu_link,-0.495712965727,0.618458390236,-0.469852745533,0.388608306646,1.93533272866e-05,0.0,0.0,0.0,1.7333902979e-05,0.0,0.0,0.0,4.45470908667e-05,0.000131650245748,0.00236540916376,-0.00176101177931,0.01,0.0,0.0,0.0,0.01,0.0,0.0,0.0,0.01,0.123994171619,9.52244186401,2.574406147,0.01,0.0,0.0,0.0,0.01,0.0,0.0,0.0,0.01
1585289620709797186,8340,1585289620709131686,waist_imu_link,-0.495691388845,0.618442296982,-0.469906717539,0.388596147299,1.93396997983e-05,0.0,0.0,0.0,1.73241420645e-05,0.0,0.0,0.0,4.4535736997e-05,0.00349318794906,0.00044380244799,-0.00320675596595,0.01,0.0,0.0,0.0,0.01,0.0,0.0,0.0,0.01,0.209043443203,9.47791576385,2.49722743034,0.01,0.0,0.0,0.0,0.01,0.0,0.0,0.0,0.01
1585289620734680493,8341,1585289620734028125,waist_imu_link,-0.495675295591,0.61842495203,-0.469954043627,0.388586878777,1.93167807484e-05,0.0,0.0,0.0,1.73063452597e-05,0.0,0.0,0.0,4.45203966754e-05,0.00131615635473,0.000908883521333,-0.00340053066611,0.01,0.0,0.0,0.0,0.01,0.0,0.0,0.0,0.01,0.150261491537,9.50030136108,2.47036361694,0.01,0.0,0.0,0.0,0.01,0.0,0.0,0.0,0.01
1585289620759823833,8342,1585289620759066531,waist_imu_link,-0.495653837919,0.618447184563,-0.469987183809,0.388538956642,1.92795007194e-05,0.0,0.0,0.0,1.72780946861e-05,0.0,0.0,0.0,4.45132446315e-05,-0.0045024077408,0.00303376745433,-0.000533606857061,0.01,0.0,0.0,0.0,0.01,0.0,0.0,0.0,0.01,0.139318972826,9.47420024872,2.46070432663,0.01,0.0,0.0,0.0,0.01,0.0,0.0,0.0,0.01
1585289620784756987,8343,1585289620783985339,waist_imu_link,-0.495700895786,0.618476688862,-0.469954282045,0.388471603394,1.92446934283e-05,0.0,0.0,0.0,1.72542369304e-05,0.0,0.0,0.0,4.452483013e-05,-0.00824344810098,0.000605260254815,-0.00315141677856,0.01,0.0,0.0,0.0,0.01,0.0,0.0,0.0,0.01,0.179295346141,9.59160995483,2.51675748825,0.01,0.0,0.0,0.0,0.01,0.0,0.0,0.0,0.01
1585289620809859835,8344,1585289620809158967,waist_imu_link,-0.495679587126,0.618492782116,-0.46998116374,0.388440787792,1.92867055909e-05,0.0,0.0,0.0,1.72904157073e-05,0.0,0.0,0.0,4.45237776417e-05,0.00408331491053,0.00373129872605,-0.000568933784962,0.01,0.0,0.0,0.0,0.01,0.0,0.0,0.0,0.01,0.188960552216,9.50807380676,2.5341629982,0.01,0.0,0.0,0.0,0.01,0.0,0.0,0.0,0.01
1585289620834581051,8345,1585289620833937792,waist_imu_link,-0.495649844408,0.618464648724,-0.470043152571,0.388448566198,1.9326253143e-05,0.0,0.0,0.0,1.73236137885e-05,0.0,0.0,0.0,4.45158494384e-05,0.00489131174982,-0.00182590214536,-0.00407596305013,0.01,0.0,0.0,0.0,0.01,0.0,0.0,0.0,0.01,0.147662013769,9.43586826324,2.52020120621,0.01,0.0,0.0,0.0,0.01,0.0,0.0,0.0,0.01
1585289620859513682,8346,1585289620858844163,waist_imu_link,-0.495727062225,0.618445217609,-0.470013141632,0.388417303562,1.93592663277e-05,0.0,0.0,0.0,1.73515453647e-05,0.0,0.0,0.0,4.45084495111e-05,-0.01030122675,-0.0051841204986,-0.00731518492103,0.01,0.0,0.0,0.0,0.01,0.0,0.0,0.0,0.01,0.132582917809,9.46605491638,2.47599768639,0.01,0.0,0.0,0.0,0.01,0.0,0.0,0.0,0.01
1585289620884609903,8347,1585289620883903873,waist_imu_link,-0.495830625296,0.618459045887,-0.469935506582,0.38835683465,1.93834654309e-05,0.0,0.0,0.0,1.73729628917e-05,0.0,0.0,0.0,4.45060722693e-05,-0.013550077565,-0.00222831894644,-0.0026961453259,0.01,0.0,0.0,0.0,0.01,0.0,0.0,0.0,0.01,0.149657860398,9.49007987976,2.50793910027,0.01,0.0,0.0,0.0,0.01,0.0,0.0,0.0,0.01
1585289620909739370,8348,1585289620909079522,waist_imu_link,-0.495886296034,0.618521571159,-0.469854623079,0.388284176588,1.93963167598e-05,0.0,0.0,0.0,1.73840871646e-05,0.0,0.0,0.0,4.44945111528e-05,-0.00401084311306,-0.00163799687289,-0.00100702792406,0.01,0.0,0.0,0.0,0.01,0.0,0.0,0.0,0.01,0.139516815543,9.55586242676,2.56115317345,0.01,0.0,0.0,0.0,0.01,0.0,0.0,0.0,0.01
1585289620934619447,8349,1585289620933826930,waist_imu_link,-0.495867222548,0.618498682976,-0.469883978367,0.388309419155,1.94020769998e-05,0.0,0.0,0.0,1.73894715159e-05,0.0,0.0,0.0,4.44836327314e-05,0.00563686341047,-0.000283397734165,-0.000102922320366,0.01,0.0,0.0,0.0,0.01,0.0,0.0,0.0,0.01,0.167453378439,9.49983787537,2.5263876915,0.01,0.0,0.0,0.0,0.01,0.0,0.0,0.0,0.01
1585289620959603827,8350,1585289620958985648,waist_imu_link,-0.495806932449,0.61852234602,-0.469922840595,0.388301640749,1.93964854018e-05,0.0,0.0,0.0,1.73858426663e-05,0.0,0.0,0.0,4.44731403578e-05,0.0012763440609,0.00431148381904,0.00214011594653,0.01,0.0,0.0,0.0,0.01,0.0,0.0,0.0,0.01,0.106927208602,9.4591293335,2.52823758125,0.01,0.0,0.0,0.0,0.01,0.0,0.0,0.0,0.01
1585289620984552048,8351,1585289620983870868,waist_imu_link,-0.495756238699,0.618550777435,-0.469968914986,0.388265281916,1.93782050213e-05,0.0,0.0,0.0,1.73732006159e-05,0.0,0.0,0.0,4.44718684318e-05,0.00148871552665,0.00430455664173,-7.53365457058e-05,0.01,0.0,0.0,0.0,0.01,0.0,0.0,0.0,0.01,0.153423964977,9.49501419067,2.57033538818,0.01,0.0,0.0,0.0,0.01,0.0,0.0,0.0,0.01
1585289621009452750,8352,1585289621008855757,waist_imu_link,-0.495712727308,0.618565320969,-0.469992220402,0.388269543648,1.93449622398e-05,0.0,0.0,0.0,1.73492697143e-05,0.0,0.0,0.0,4.44769236265e-05,0.00275498465635,0.0018534057308,-2.09957361221e-05,0.01,0.0,0.0,0.0,0.01,0.0,0.0,0.0,0.01,0.18251606822,9.51543426514,2.50670933723,0.01,0.0,0.0,0.0,0.01,0.0,0.0,0.0,0.01
1585289621034411485,8353,1585289621033705481,waist_imu_link,-0.495618253946,0.618575572968,-0.470069646835,0.388280123472,1.92975657258e-05,0.0,0.0,0.0,1.7313732996e-05,0.0,0.0,0.0,4.44805402851e-05,0.00444081565365,0.00926139205694,0.0020390599966,0.01,0.0,0.0,0.0,0.01,0.0,0.0,0.0,0.01,0.1693572402,9.46676635742,2.46460318565,0.01,0.0,0.0,0.0,0.01,0.0,0.0,0.0,0.01
1585289621059256602,8354,1585289621058630909,waist_imu_link,-0.495574504137,0.618613660336,-0.470107316971,0.388229519129,1.92355014263e-05,0.0,0.0,0.0,1.72647028902e-05,0.0,0.0,0.0,4.44708809621e-05,-0.00337649788707,0.000904551590793,-0.00301004201174,0.01,0.0,0.0,0.0,0.01,0.0,0.0,0.0,0.01,0.189035654068,9.4608631134,2.53591036797,0.01,0.0,0.0,0.0,0.01,0.0,0.0,0.0,0.01
1585289621084153740,8355,1585289621083537029,waist_imu_link,-0.49564987421,0.618602752686,-0.470089614391,0.388172149658,1.91604374742e-05,0.0,0.0,0.0,1.72048898591e-05,0.0,0.0,0.0,4.44591816811e-05,-0.00415048934519,-0.00202855956741,-0.00579214841127,0.01,0.0,0.0,0.0,0.01,0.0,0.0,0.0,0.01,0.147155821323,9.53542423248,2.56025910378,0.01,0.0,0.0,0.0,0.01,0.0,0.0,0.0,0.01
1585289621109225353,8356,1585289621108510531,waist_imu_link,-0.495621949434,0.61861884594,-0.470119267702,0.388146400452,1.90804808739e-05,0.0,0.0,0.0,1.71430145198e-05,0.0,0.0,0.0,4.44621197083e-05,0.00702882977203,0.00570080336183,0.00319275632501,0.01,0.0,0.0,0.0,0.01,0.0,0.0,0.0,0.01,0.190663516521,9.50112533569,2.55935645103,0.01,0.0,0.0,0.0,0.01,0.0,0.0,0.0,0.01
1585289621134397868,8357,1585289621133719234,waist_imu_link,-0.495556056499,0.618645012379,-0.470138370991,0.38816550374,1.90119350345e-05,0.0,0.0,0.0,1.70897419516e-05,0.0,0.0,0.0,4.44604779891e-05,0.000689289299771,2.91839241982e-05,5.32232224941e-05,0.01,0.0,0.0,0.0,0.01,0.0,0.0,0.0,0.01,0.167581662536,9.44483947754,2.55164790154,0.01,0.0,0.0,0.0,0.01,0.0,0.0,0.0,0.01
1585289621159511423,8358,1585289621158739194,waist_imu_link,-0.495614230633,0.618632733822,-0.470102339983,0.388154447079,1.89360542865e-05,0.0,0.0,0.0,1.70299847958e-05,0.0,0.0,0.0,4.44543621788e-05,-0.00460614683107,-0.00679575419053,-0.00846458226442,0.01,0.0,0.0,0.0,0.01,0.0,0.0,0.0,0.01,0.189947411418,9.52362537384,2.4989323616,0.01,0.0,0.0,0.0,0.01,0.0,0.0,0.0,0.01
1585289621184273041,8359,1585289621183723580,waist_imu_link,-0.495691090822,0.618552923203,-0.470111310482,0.3881726861,1.88858883873e-05,0.0,0.0,0.0,1.69941240005e-05,0.0,0.0,0.0,4.44725429996e-05,0.00176196568646,-0.00469824764878,-0.00821338966489,0.01,0.0,0.0,0.0,0.01,0.0,0.0,0.0,0.01,0.16705442965,9.50574588776,2.53110694885,0.01,0.0,0.0,0.0,0.01,0.0,0.0,0.0,0.01
1585289621209194315,8360,1585289621208485170,waist_imu_link,-0.495719641447,0.618540942669,-0.470091700554,0.388179033995,1.87849226579e-05,0.0,0.0,0.0,1.69151863632e-05,0.0,0.0,0.0,4.44759320932e-05,-0.00329481088556,-0.00343155069277,-0.000209905207157,0.01,0.0,0.0,0.0,0.01,0.0,0.0,0.0,0.01,0.135935232043,9.44248390198,2.52230930328,0.01,0.0,0.0,0.0,0.01,0.0,0.0,0.0,0.01
1585289621234070669,8361,1585289621233457747,waist_imu_link,-0.495771557093,0.61850553751,-0.470061540604,0.388205677271,1.8693862103e-05,0.0,0.0,0.0,1.68443293165e-05,0.0,0.0,0.0,4.44799551179e-05,0.00154015584849,-0.00887070037425,-0.00241194665432,0.01,0.0,0.0,0.0,0.01,0.0,0.0,0.0,0.01,0.0938624516129,9.54071807861,2.46357774734,0.01,0.0,0.0,0.0,0.01,0.0,0.0,0.0,0.01
1585289621259066060,8362,1585289621258373422,waist_imu_link,-0.495844483376,0.618462920189,-0.470026642084,0.388222813606,1.85693637108e-05,0.0,0.0,0.0,1.67471803809e-05,0.0,0.0,0.0,4.44920079374e-05,-0.00688652228564,-0.00655965320766,-0.00509003922343,0.01,0.0,0.0,0.0,0.01,0.0,0.0,0.0,0.01,0.151220008731,9.50547790527,2.49085760117,0.01,0.0,0.0,0.0,0.01,0.0,0.0,0.0,0.01
1585289621284185353,8363,1585289621283490954,waist_imu_link,-0.49591460824,0.618457376957,-0.469987988472,0.388188838959,1.84614795979e-05,0.0,0.0,0.0,1.66616972012e-05,0.0,0.0,0.0,4.44895575496e-05,0.00195940490812,-0.00100068654865,-0.00471150502563,0.01,0.0,0.0,0.0,0.01,0.0,0.0,0.0,0.01,0.178102016449,9.53342914581,2.57173395157,0.01,0.0,0.0,0.0,0.01,0.0,0.0,0.0,0.01
1585289621308945203,8364,1585289621308282748,waist_imu_link,-0.495872139931,0.618415117264,-0.470055729151,0.388228327036,1.83617837626e-05,0.0,0.0,0.0,1.65818950199e-05,0.0,0.0,0.0,4.4479101749e-05,0.00895982980728,-0.000144372228533,0.000598505139351,0.01,0.0,0.0,0.0,0.01,0.0,0.0,0.0,0.01,0.116582214832,9.41975307465,2.51279258728,0.01,0.0,0.0,0.0,0.01,0.0,0.0,0.0,0.01
1585289621334075175,8365,1585289621333403648,waist_imu_link,-0.495874881744,0.618412315845,-0.470054209232,0.388231128454,1.83613652055e-05,0.0,0.0,0.0,1.65830836409e-05,0.0,0.0,0.0,4.44688735134e-05,-0.00785132776946,-0.00254060537554,-0.000950329005718,0.01,0.0,0.0,0.0,0.01,0.0,0.0,0.0,0.01,0.140505895019,9.47523593903,2.45499944687,0.01,0.0,0.0,0.0,0.01,0.0,0.0,0.0,0.01
1585289621359013769,8366,1585289621358428916,waist_imu_link,-0.495903849602,0.618467271328,-0.470001488924,0.388170540333,1.83799747426e-05,0.0,0.0,0.0,1.66003836631e-05,0.0,0.0,0.0,4.44635907537e-05,-0.010088738054,0.000577362719923,-0.00110502168536,0.01,0.0,0.0,0.0,0.01,0.0,0.0,0.0,0.01,0.111834168434,9.54963970184,2.53803229332,0.01,0.0,0.0,0.0,0.01,0.0,0.0,0.0,0.01
1585289621383912053,8367,1585289621383217955,waist_imu_link,-0.495923936367,0.618487894535,-0.469998121262,0.388115972281,1.83971924756e-05,0.0,0.0,0.0,1.66203951633e-05,0.0,0.0,0.0,4.44909270035e-05,0.00442957133055,0.00188595219515,-0.00341478362679,0.01,0.0,0.0,0.0,0.01,0.0,0.0,0.0,0.01,0.175562769175,9.53221416473,2.59345817566,0.01,0.0,0.0,0.0,0.01,0.0,0.0,0.0,0.01
1585289621409190170,8368,1585289621408461407,waist_imu_link,-0.49586212635,0.618507444859,-0.470040440559,0.388112545013,1.84074105521e-05,0.0,0.0,0.0,1.6632277309e-05,0.0,0.0,0.0,4.449893648e-05,0.00189160939772,0.00363474292681,0.00271648168564,0.01,0.0,0.0,0.0,0.01,0.0,0.0,0.0,0.01,0.149870499969,9.43833065033,2.52896213531,0.01,0.0,0.0,0.0,0.01,0.0,0.0,0.0,0.01
1585289621433967773,8369,1585289621433474629,waist_imu_link,-0.495827466249,0.618523776531,-0.470040291548,0.388130962849,1.8406282886e-05,0.0,0.0,0.0,1.66345478798e-05,0.0,0.0,0.0,4.45049100621e-05,-0.00407266290858,-0.00311693246476,0.0016562640667,0.01,0.0,0.0,0.0,0.01,0.0,0.0,0.0,0.01,0.148431539536,9.50206375122,2.45569729805,0.01,0.0,0.0,0.0,0.01,0.0,0.0,0.0,0.01
1585289621458927024,8370,1585289621458384640,waist_imu_link,-0.495891779661,0.618609368801,-0.469900637865,0.388081490993,1.83992019562e-05,0.0,0.0,0.0,1.66299010831e-05,0.0,0.0,0.0,4.44942470148e-05,-0.020004812628,-0.00483809737489,0.00261854752898,0.01,0.0,0.0,0.0,0.01,0.0,0.0,0.0,0.01,0.147880971432,9.5041809082,2.53622627258,0.01,0.0,0.0,0.0,0.01,0.0,0.0,0.0,0.01
1585289621484020267,8371,1585289621483392407,waist_imu_link,-0.495987862349,0.618659734726,-0.469774365425,0.388031125069,1.83783289597e-05,0.0,0.0,0.0,1.66156325522e-05,0.0,0.0,0.0,4.44975426441e-05,-0.0042612454854,-0.0036924672313,-0.00348856672645,0.01,0.0,0.0,0.0,0.01,0.0,0.0,0.0,0.01,0.192950308323,9.55029678345,2.57584047318,0.01,0.0,0.0,0.0,0.01,0.0,0.0,0.0,0.01
1585289621509012844,8372,1585289621508272308,waist_imu_link,-0.495984256268,0.618633449078,-0.469791978598,0.388056397438,1.83503547151e-05,0.0,0.0,0.0,1.65948733383e-05,0.0,0.0,0.0,4.44952466755e-05,0.00303890695795,-0.00041460362263,-0.00112663954496,0.01,0.0,0.0,0.0,0.01,0.0,0.0,0.0,0.01,0.173580616713,9.45652008057,2.53247737885,0.01,0.0,0.0,0.0,0.01,0.0,0.0,0.0,0.01
1585289621534269467,8373,1585289621533217569,waist_imu_link,-0.496002852917,0.618628203869,-0.469785094261,0.388049453497,1.83075277884e-05,0.0,0.0,0.0,1.65616173499e-05,0.0,0.0,0.0,4.44907929026e-05,-0.00222010398284,0.000395433278754,-0.000122729688883,0.01,0.0,0.0,0.0,0.01,0.0,0.0,0.0,0.01,0.105018630624,9.47364425659,2.539945364,0.01,0.0,0.0,0.0,0.01,0.0,0.0,0.0,0.01
1585289621558512147,8374,1585289621557965622,waist_imu_link,-0.49604165554,0.618650197983,-0.469736456871,0.388023734093,1.82506731027e-05,0.0,0.0,0.0,1.65162577462e-05,0.0,0.0,0.0,4.44808328687e-05,-0.00497838295996,-0.00330552179366,0.00231876969337,0.01,0.0,0.0,0.0,0.01,0.0,0.0,0.0,0.01,0.0867064371705,9.50735855103,2.50898528099,0.01,0.0,0.0,0.0,0.01,0.0,0.0,0.0,0.01
1585289621583095841,8375,1585289621582870467,waist_imu_link,-0.496081024408,0.618632495403,-0.469722062349,0.388018995523,1.81772021058e-05,0.0,0.0,0.0,1.64576150495e-05,0.0,0.0,0.0,4.4473270395e-05,-0.00310324062593,-0.0032447790727,-0.00323456525803,0.01,0.0,0.0,0.0,0.01,0.0,0.0,0.0,0.01,0.157273173332,9.53981399536,2.50106716156,0.01,0.0,0.0,0.0,0.01,0.0,0.0,0.0,0.01
1585289621608796473,8376,1585289621608172095,waist_imu_link,-0.496082931757,0.618643224239,-0.469730556011,0.387988954782,1.80886366389e-05,0.0,0.0,0.0,1.63863668754e-05,0.0,0.0,0.0,4.4463899592e-05,-0.000458777765743,0.00245838449337,-0.00341009348631,0.01,0.0,0.0,0.0,0.01,0.0,0.0,0.0,0.01,0.168972864747,9.48595046997,2.56030535698,0.01,0.0,0.0,0.0,0.01,0.0,0.0,0.0,0.01
1585289621634043383,8377,1585289621633284332,waist_imu_link,-0.496078133583,0.618662178516,-0.46975427866,0.387936234474,1.79859377579e-05,0.0,0.0,0.0,1.63031441073e-05,0.0,0.0,0.0,4.44518955364e-05,0.000912856543437,0.0031461645849,-0.00128871947527,0.01,0.0,0.0,0.0,0.01,0.0,0.0,0.0,0.01,0.127158865333,9.48993110657,2.55220198631,0.01,0.0,0.0,0.0,0.01,0.0,0.0,0.0,0.01
1585289621658829205,8378,1585289621658187386,waist_imu_link,-0.496067911386,0.618715047836,-0.469755083323,0.387864112854,1.78652206026e-05,0.0,0.0,0.0,1.62050818638e-05,0.0,0.0,0.0,4.44389934117e-05,-0.00513225188479,0.00252609234303,0.000392876565456,0.01,0.0,0.0,0.0,0.01,0.0,0.0,0.0,0.01,0.117382392287,9.4713640213,2.51679325104,0.01,0.0,0.0,0.0,0.01,0.0,0.0,0.0,0.01
1585289621683950664,8379,1585289621683196838,waist_imu_link,-0.496076017618,0.618747591972,-0.46973541379,0.387825667858,1.77286632954e-05,0.0,0.0,0.0,1.60942962968e-05,0.0,0.0,0.0,4.44290943327e-05,-0.00474558863789,-0.00398661568761,-0.002550765872,0.01,0.0,0.0,0.0,0.01,0.0,0.0,0.0,0.01,0.128654271364,9.49168777466,2.54731225967,0.01,0.0,0.0,0.0,0.01,0.0,0.0,0.0,0.01
1585289621708802449,8380,1585289621708188424,waist_imu_link,-0.49608823657,0.618734359741,-0.469746530056,0.387817680836,1.76304364737e-05,0.0,0.0,0.0,1.60153992961e-05,0.0,0.0,0.0,4.44223161456e-05,0.00269103213213,0.00121985946316,-0.0024948194623,0.01,0.0,0.0,0.0,0.01,0.0,0.0,0.0,0.01,0.190498158336,9.5242805481,2.51051902771,0.01,0.0,0.0,0.0,0.01,0.0,0.0,0.0,0.01
1585289621733588964,8381,1585289621732999813,waist_imu_link,-0.496056765318,0.61878567934,-0.469740211964,0.387783646584,1.74907115425e-05,0.0,0.0,0.0,1.59029405165e-05,0.0,0.0,0.0,4.44227753393e-05,-0.00823943968862,0.00514922756702,-0.000642698258162,0.01,0.0,0.0,0.0,0.01,0.0,0.0,0.0,0.01,0.157865732908,9.44961547852,2.55939531326,0.01,0.0,0.0,0.0,0.01,0.0,0.0,0.0,0.01
1585289621758513061,8382,1585289621757878238,waist_imu_link,-0.496089190245,0.618831694126,-0.469689041376,0.387730717659,1.73077533183e-05,0.0,0.0,0.0,1.57532829811e-05,0.0,0.0,0.0,4.44119497455e-05,-0.00298466603272,-0.00174652924761,6.01969659328e-05,0.01,0.0,0.0,0.0,0.01,0.0,0.0,0.0,0.01,0.132247164845,9.50226593018,2.5484085083,0.01,0.0,0.0,0.0,0.01,0.0,0.0,0.0,0.01
1585289621783750240,8383,1585289621783105292,waist_imu_link,-0.496137201786,0.618777453899,-0.469698548317,0.387744307518,1.71262925534e-05,0.0,0.0,0.0,1.56047531117e-05,0.0,0.0,0.0,4.44010550695e-05,0.00380511302501,-0.00658455351368,-0.00651517137885,0.01,0.0,0.0,0.0,0.01,0.0,0.0,0.0,0.01,0.176245510578,9.48777580261,2.5342040062,0.01,0.0,0.0,0.0,0.01,0.0,0.0,0.0,0.01
1585289621809533088,8384,1585289621808872532,waist_imu_link,-0.496190309525,0.618714034557,-0.469706267118,0.38776832819,1.69948788256e-05,0.0,0.0,0.0,1.54974114976e-05,0.0,0.0,0.0,4.43875677775e-05,0.000404912396334,-0.00357656786218,-0.00483720004559,0.01,0.0,0.0,0.0,0.01,0.0,0.0,0.0,0.01,0.18852648139,9.48217105865,2.54229331017,0.01,0.0,0.0,0.0,0.01,0.0,0.0,0.0,0.01
1585289621833977001,8385,1585289621833174792,waist_imu_link,-0.49620243907,0.618730425835,-0.46967369318,0.387765973806,1.6806502725e-05,0.0,0.0,0.0,1.53424112635e-05,0.0,0.0,0.0,4.43732271167e-05,-0.000301804102492,-0.00144702591933,0.00241535156965,0.01,0.0,0.0,0.0,0.01,0.0,0.0,0.0,0.01,0.125533267856,9.52522087097,2.57564783096,0.01,0.0,0.0,0.0,0.01,0.0,0.0,0.0,0.01
1585289621858510332,8386,1585289621857904672,waist_imu_link,-0.496179670095,0.618684947491,-0.46970307827,0.387832164764,1.67184401362e-05,0.0,0.0,0.0,1.52734031827e-05,0.0,0.0,0.0,4.4382593856e-05,0.00864334683865,-0.0051953215152,0.00196209549904,0.01,0.0,0.0,0.0,0.01,0.0,0.0,0.0,0.01,0.0876765176654,9.50039577484,2.53464794159,0.01,0.0,0.0,0.0,0.01,0.0,0.0,0.0,0.01
1585289621883830453,8387,1585289621883085628,waist_imu_link,-0.496195554733,0.618623971939,-0.469722300768,0.387885779142,1.66964811263e-05,0.0,0.0,0.0,1.52588461319e-05,0.0,0.0,0.0,4.43859219947e-05,0.00363974366337,-0.00393785862252,-0.00378281250596,0.01,0.0,0.0,0.0,0.01,0.0,0.0,0.0,0.01,0.142355442047,9.44007301331,2.51068615913,0.01,0.0,0.0,0.0,0.01,0.0,0.0,0.0,0.01
1585289621909652188,8388,1585289621909005435,waist_imu_link,-0.496265351772,0.618569254875,-0.469719916582,0.387886554003,1.67106460337e-05,0.0,0.0,0.0,1.52741834057e-05,0.0,0.0,0.0,4.43873483398e-05,-0.00118104217108,-0.00406943168491,-0.0046211630106,0.01,0.0,0.0,0.0,0.01,0.0,0.0,0.0,0.01,0.141032427549,9.47253131866,2.53006219864,0.01,0.0,0.0,0.0,0.01,0.0,0.0,0.0,0.01
1585289621934527172,8389,1585289621933874761,waist_imu_link,-0.496327728033,0.618576645851,-0.46965649724,0.387871831656,1.67130517212e-05,0.0,0.0,0.0,1.52818860757e-05,0.0,0.0,0.0,4.44107631564e-05,-0.00641949800774,-0.00331948325038,-0.000733770430088,0.01,0.0,0.0,0.0,0.01,0.0,0.0,0.0,0.01,0.1471978724,9.528673172,2.57475876808,0.01,0.0,0.0,0.0,0.01,0.0,0.0,0.0,0.01
1585289621959386308,8390,1585289621958767061,waist_imu_link,-0.496324926615,0.618602097034,-0.469625353813,0.387872457504,1.6708951487e-05,0.0,0.0,0.0,1.52829883438e-05,0.0,0.0,0.0,4.44229460131e-05,0.00187545444351,-0.00221607275307,0.00456137955189,0.01,0.0,0.0,0.0,0.01,0.0,0.0,0.0,0.01,0.109015397727,9.5027179718,2.5770573616,0.01,0.0,0.0,0.0,0.01,0.0,0.0,0.0,0.01
1585289621984531533,8391,1585289621983843957,waist_imu_link,-0.496289879084,0.61862051487,-0.469626158476,0.38788703084,1.67206822613e-05,0.0,0.0,0.0,1.52956293783e-05,0.0,0.0,0.0,4.44196381927e-05,3.92165966332e-05,-0.000866902759299,0.00254350528121,0.01,0.0,0.0,0.0,0.01,0.0,0.0,0.0,0.01,0.10684838146,9.43846130371,2.56453371048,0.01,0.0,0.0,0.0,0.01,0.0,0.0,0.0,0.01
1585289622009402236,8392,1585289622008733565,waist_imu_link,-0.49632191658,0.618622124195,-0.469609111547,0.387864112854,1.6738432334e-05,0.0,0.0,0.0,1.53122975012e-05,0.0,0.0,0.0,4.44073578082e-05,-0.00548906251788,-0.00063077849336,-0.00277211889625,0.01,0.0,0.0,0.0,0.01,0.0,0.0,0.0,0.01,0.159462094307,9.49676322937,2.5257537365,0.01,0.0,0.0,0.0,0.01,0.0,0.0,0.0,0.01
1585289622034303012,8393,1585289622033658894,waist_imu_link,-0.496349871159,0.61867159605,-0.469563812017,0.387804239988,1.67427702925e-05,0.0,0.0,0.0,1.53197492402e-05,0.0,0.0,0.0,4.4415111274e-05,-0.00813257694244,0.000911805313081,1.82539224625e-06,0.01,0.0,0.0,0.0,0.01,0.0,0.0,0.0,0.01,0.147780746222,9.45740127563,2.53245735168,0.01,0.0,0.0,0.0,0.01,0.0,0.0,0.0,0.01
1585289622059526399,8394,1585289622058740630,waist_imu_link,-0.496337085962,0.618752777576,-0.469517171383,0.387747615576,1.673416041e-05,0.0,0.0,0.0,1.53149317697e-05,0.0,0.0,0.0,4.44093490022e-05,-0.0051722927019,0.00224990886636,0.00359760224819,0.01,0.0,0.0,0.0,0.01,0.0,0.0,0.0,0.01,0.118790522218,9.51779937744,2.50915718079,0.01,0.0,0.0,0.0,0.01,0.0,0.0,0.0,0.01
1585289622084234295,8395,1585289622083628225,waist_imu_link,-0.496308475733,0.618823289871,-0.469472676516,0.387725561857,1.67150500267e-05,0.0,0.0,0.0,1.53004244987e-05,0.0,0.0,0.0,4.4395601636e-05,-0.00542774330825,0.00218317634426,0.00536229461432,0.01,0.0,0.0,0.0,0.01,0.0,0.0,0.0,0.01,0.121925160289,9.5060005188,2.51436400414,0.01,0.0,0.0,0.0,0.01,0.0,0.0,0.0,0.01
1585289622109279164,8396,1585289622108612592,waist_imu_link,-0.496242552996,0.618916451931,-0.469439893961,0.387700945139,1.66866988775e-05,0.0,0.0,0.0,1.52800868897e-05,0.0,0.0,0.0,4.44005105388e-05,-0.0060333753936,0.00381023809314,0.00559236854315,0.01,0.0,0.0,0.0,0.01,0.0,0.0,0.0,0.01,0.151247546077,9.4676399231,2.50011968613,0.01,0.0,0.0,0.0,0.01,0.0,0.0,0.0,0.01
1585289622134152118,8397,1585289622133597746,waist_imu_link,-0.496242076159,0.618976771832,-0.469394207001,0.387660622597,1.66424456056e-05,0.0,0.0,0.0,1.52462467499e-05,0.0,0.0,0.0,4.44046229641e-05,-0.00513476505876,0.0010026958771,-0.00216457620263,0.01,0.0,0.0,0.0,0.01,0.0,0.0,0.0,0.01,0.152567788959,9.5125207901,2.53016042709,0.01,0.0,0.0,0.0,0.01,0.0,0.0,0.0,0.01
1585289622159304897,8398,1585289622158586128,waist_imu_link,-0.496211111546,0.618982732296,-0.469431728125,0.387645214796,1.6603780884e-05,0.0,0.0,0.0,1.52159999027e-05,0.0,0.0,0.0,4.439833648e-05,0.000588624738157,0.00555441481993,0.00184853002429,0.01,0.0,0.0,0.0,0.01,0.0,0.0,0.0,0.01,0.130260869861,9.47922992706,2.49267244339,0.01,0.0,0.0,0.0,0.01,0.0,0.0,0.0,0.01
1585289622184529117,8399,1585289622183677671,waist_imu_link,-0.496174037457,0.619082629681,-0.469400167465,0.387571364641,1.65516949048e-05,0.0,0.0,0.0,1.51737459522e-05,0.0,0.0,0.0,4.43851458354e-05,-0.0116553055122,0.00528751080856,0.00379629060626,0.01,0.0,0.0,0.0,0.01,0.0,0.0,0.0,0.01,0.153224006295,9.4852180481,2.52397680283,0.01,0.0,0.0,0.0,0.01,0.0,0.0,0.0,0.01
1585289622209471179,8400,1585289622208739070,waist_imu_link,-0.496166586876,0.619134902954,-0.469340711832,0.387569367886,1.6488230674e-05,0.0,0.0,0.0,1.51220074161e-05,0.0,0.0,0.0,4.43732189893e-05,-0.000870380492415,-0.00202027568594,0.00185328349471,0.01,0.0,0.0,0.0,0.01,0.0,0.0,0.0,0.01,0.143377810717,9.51750659943,2.57116913795,0.01,0.0,0.0,0.0,0.01,0.0,0.0,0.0,0.01
1585289622234377382,8401,1585289622233553673,waist_imu_link,-0.496137201786,0.619151473045,-0.469328522682,0.387595325708,1.64168941153e-05,0.0,0.0,0.0,1.50636207301e-05,0.0,0.0,0.0,4.43606053846e-05,0.00133687525522,-0.000374753959477,0.00219750776887,0.01,0.0,0.0,0.0,0.01,0.0,0.0,0.0,0.01,0.145638734102,9.48710441589,2.51963615417,0.01,0.0,0.0,0.0,0.01,0.0,0.0,0.0,0.01
1585289622259215040,8402,1585289622258495006,waist_imu_link,-0.496120542288,0.619165182114,-0.469317138195,0.387608498335,1.63673601155e-05,0.0,0.0,0.0,1.50251906849e-05,0.0,0.0,0.0,4.4364079815e-05,0.00158075033687,-0.00358393113129,-0.000382035970688,0.01,0.0,0.0,0.0,0.01,0.0,0.0,0.0,0.01,0.162116527557,9.46900939941,2.57958889008,0.01,0.0,0.0,0.0,0.01,0.0,0.0,0.0,0.01
1585289622284182166,8403,1585289622283557475,waist_imu_link,-0.496128350496,0.619160473347,-0.469297945499,0.387629270554,1.63064529435e-05,0.0,0.0,0.0,1.49764562105e-05,0.0,0.0,0.0,4.436104426e-05,-0.00271628098562,-0.00393383856863,-0.00220743566751,0.01,0.0,0.0,0.0,0.01,0.0,0.0,0.0,0.01,0.16892772913,9.47583770752,2.53414726257,0.01,0.0,0.0,0.0,0.01,0.0,0.0,0.0,0.01
1585289622309358971,8404,1585289622308533219,waist_imu_link,-0.496153086424,0.61913728714,-0.469275295734,0.387661904097,1.62145735608e-05,0.0,0.0,0.0,1.49011392954e-05,0.0,0.0,0.0,4.43542904549e-05,8.37426632643e-05,-0.00604995945469,0.000134900212288,0.01,0.0,0.0,0.0,0.01,0.0,0.0,0.0,0.01,0.137240171432,9.45532035828,2.51681017876,0.01,0.0,0.0,0.0,0.01,0.0,0.0,0.0,0.01
1585289622333808583,8405,1585289622333228855,waist_imu_link,-0.496209293604,0.619109451771,-0.469215929508,0.387706369162,1.61199887956e-05,0.0,0.0,0.0,1.48230662021e-05,0.0,0.0,0.0,4.43431885321e-05,-0.00454545859247,-0.00648262817413,-0.000656776130199,0.01,0.0,0.0,0.0,0.01,0.0,0.0,0.0,0.01,0.166436746716,9.49148750305,2.51057672501,0.01,0.0,0.0,0.0,0.01,0.0,0.0,0.0,0.01
1585289622359019248,8406,1585289622358353394,waist_imu_link,-0.496240198612,0.619110226631,-0.469164997339,0.387727200985,1.60530948346e-05,0.0,0.0,0.0,1.47692176099e-05,0.0,0.0,0.0,4.43402952052e-05,-0.00743597280234,-0.00188950542361,-0.00103497132659,0.01,0.0,0.0,0.0,0.01,0.0,0.0,0.0,0.01,0.168074965477,9.4751663208,2.49234223366,0.01,0.0,0.0,0.0,0.01,0.0,0.0,0.0,0.01
1585289622384434839,8407,1585289622383651445,waist_imu_link,-0.496279984713,0.619149982929,-0.469100296497,0.387691289186,1.5963697333e-05,0.0,0.0,0.0,1.46966365549e-05,0.0,0.0,0.0,4.43416809138e-05,-0.00523520866409,-0.00358415604569,-0.00180414691567,0.01,0.0,0.0,0.0,0.01,0.0,0.0,0.0,0.01,0.15961612761,9.49645614624,2.56499290466,0.01,0.0,0.0,0.0,0.01,0.0,0.0,0.0,0.01
1585289622409251763,8408,1585289622408488256,waist_imu_link,-0.496348559856,0.619181036949,-0.469032943249,0.387635290623,1.58915571852e-05,0.0,0.0,0.0,1.4638439845e-05,0.0,0.0,0.0,4.4340957582e-05,-0.00512877898291,-0.00224225362763,-0.00299123674631,0.01,0.0,0.0,0.0,0.01,0.0,0.0,0.0,0.01,0.13686183095,9.49987506866,2.55161976814,0.01,0.0,0.0,0.0,0.01,0.0,0.0,0.0,0.01
1585289622433993669,8409,1585289622433376243,waist_imu_link,-0.496355891228,0.619139671326,-0.469049155712,0.387672454119,1.5803391989e-05,0.0,0.0,0.0,1.45657602462e-05,0.0,0.0,0.0,4.43317493255e-05,0.00508681870997,-0.00347340782173,-0.00079757720232,0.01,0.0,0.0,0.0,0.01,0.0,0.0,0.0,0.01,0.162263706326,9.48566436768,2.5663626194,0.01,0.0,0.0,0.0,0.01,0.0,0.0,0.0,0.01
1585289622458922218,8410,1585289622458290664,waist_imu_link,-0.496339440346,0.619136571884,-0.469052523375,0.387694180012,1.57083449823e-05,0.0,0.0,0.0,1.44875967364e-05,0.0,0.0,0.0,4.4326763213e-05,-0.000779521826189,-0.00168945873156,-0.000817399471998,0.01,0.0,0.0,0.0,0.01,0.0,0.0,0.0,0.01,0.169840842485,9.52733707428,2.50631284714,0.01,0.0,0.0,0.0,0.01,0.0,0.0,0.0,0.01
1585289622483972728,8411,1585289622483356914,waist_imu_link,-0.496302455664,0.619134008884,-0.469061464071,0.387734681368,1.56090514495e-05,0.0,0.0,0.0,1.44050871408e-05,0.0,0.0,0.0,4.43148038577e-05,0.00618256535381,-0.00213578040712,-7.71768391132e-05,0.01,0.0,0.0,0.0,0.01,0.0,0.0,0.0,0.01,0.172975301743,9.47311210632,2.55681920052,0.01,0.0,0.0,0.0,0.01,0.0,0.0,0.0,0.01
1585289622508794511,8412,1585289622508197645,waist_imu_link,-0.49629470706,0.619095861912,-0.469076305628,0.387787878513,1.55105929991e-05,0.0,0.0,0.0,1.43230275957e-05,0.0,0.0,0.0,4.43004428786e-05,0.00196196837351,-0.00429733656347,-0.00314694643021,0.01,0.0,0.0,0.0,0.01,0.0,0.0,0.0,0.01,0.160616606474,9.4916267395,2.50514793396,0.01,0.0,0.0,0.0,0.01,0.0,0.0,0.0,0.01
1585289622534342248,8413,1585289622533477449,waist_imu_link,-0.496280580759,0.619060456753,-0.469092428684,0.3878428936,1.5436320445e-05,0.0,0.0,0.0,1.42617171054e-05,0.0,0.0,0.0,4.42874391623e-05,0.00535447895527,-0.00341503531672,-0.000701285898685,0.01,0.0,0.0,0.0,0.01,0.0,0.0,0.0,0.01,0.20771445334,9.48252868652,2.53104400635,0.01,0.0,0.0,0.0,0.01,0.0,0.0,0.0,0.01
1585289622558715074,8414,1585289622558087307,waist_imu_link,-0.496272236109,0.619042694569,-0.469105839729,0.387865781784,1.54604789116e-05,0.0,0.0,0.0,1.42849734392e-05,0.0,0.0,0.0,4.42810063864e-05,0.00241160392761,-0.00303640798666,-0.00240739434958,0.01,0.0,0.0,0.0,0.01,0.0,0.0,0.0,0.01,0.203129589558,9.4945268631,2.56144452095,0.01,0.0,0.0,0.0,0.01,0.0,0.0,0.0,0.01
1585289622584149074,8415,1585289622583316533,waist_imu_link,-0.496294587851,0.619019925594,-0.469092130661,0.38788998127,1.54787674195e-05,0.0,0.0,0.0,1.43039304193e-05,0.0,0.0,0.0,4.42834486469e-05,-0.00103412941098,-0.00670243985951,-0.0031044781208,0.01,0.0,0.0,0.0,0.01,0.0,0.0,0.0,0.01,0.176555231214,9.50048828125,2.54611563683,0.01,0.0,0.0,0.0,0.01,0.0,0.0,0.0,0.01
1585289622608267153,8416,1585289622607851013,waist_imu_link,-0.496335357428,0.618990123272,-0.469052225351,0.38793361187,1.54850498399e-05,0.0,0.0,0.0,1.4311540641e-05,0.0,0.0,0.0,4.42752116054e-05,-0.00195821141824,-0.00538798701018,0.00214722380042,0.01,0.0,0.0,0.0,0.01,0.0,0.0,0.0,0.01,0.146076485515,9.48031234741,2.52331781387,0.01,0.0,0.0,0.0,0.01,0.0,0.0,0.0,0.01
1585289622633302738,8417,1585289622632929909,waist_imu_link,-0.49635091424,0.618998706341,-0.469012737274,0.387947678566,1.54813640991e-05,0.0,0.0,0.0,1.43103977363e-05,0.0,0.0,0.0,4.42647314228e-05,-0.00187210447621,-0.00285850418732,0.00139208137989,0.01,0.0,0.0,0.0,0.01,0.0,0.0,0.0,0.01,0.0884335339069,9.52740764618,2.53100728989,0.01,0.0,0.0,0.0,0.01,0.0,0.0,0.0,0.01
1585289622659009362,8418,1585289622658300868,waist_imu_link,-0.496357679367,0.618969678879,-0.469034224749,0.387959301472,1.54718266859e-05,0.0,0.0,0.0,1.43050397988e-05,0.0,0.0,0.0,4.42634473058e-05,0.00484921317548,-0.00273552304134,-0.00220185518265,0.01,0.0,0.0,0.0,0.01,0.0,0.0,0.0,0.01,0.156308889389,9.48086166382,2.58458280563,0.01,0.0,0.0,0.0,0.01,0.0,0.0,0.0,0.01
1585289622683844869,8419,1585289622683208316,waist_imu_link,-0.496355116367,0.618967950344,-0.46903949976,0.387959033251,1.54480044873e-05,0.0,0.0,0.0,1.42869656491e-05,0.0,0.0,0.0,4.42569007474e-05,0.000839905114844,0.000314020551741,-4.39770519733e-05,0.01,0.0,0.0,0.0,0.01,0.0,0.0,0.0,0.01,0.152610421181,9.45500564575,2.5549621582,0.01,0.0,0.0,0.0,0.01,0.0,0.0,0.0,0.01
1585289622708563594,8420,1585289622707957908,waist_imu_link,-0.496325522661,0.618975281715,-0.469069182873,0.387949436903,1.54135893395e-05,0.0,0.0,0.0,1.42595867309e-05,0.0,0.0,0.0,4.42482085758e-05,9.23430779949e-05,0.00284094153903,0.00118609145284,0.01,0.0,0.0,0.0,0.01,0.0,0.0,0.0,0.01,0.110719807446,9.50459671021,2.5035879612,0.01,0.0,0.0,0.0,0.01,0.0,0.0,0.0,0.01
1585289622733762832,8421,1585289622733127120,waist_imu_link,-0.496285408735,0.619020044804,-0.469094634056,0.387898594141,1.54007339468e-05,0.0,0.0,0.0,1.42511160289e-05,0.0,0.0,0.0,4.42448316732e-05,-0.00178111484274,0.00624790694565,0.00382355228066,0.01,0.0,0.0,0.0,0.01,0.0,0.0,0.0,0.01,0.109013825655,9.49522018433,2.50869083405,0.01,0.0,0.0,0.0,0.01,0.0,0.0,0.0,0.01
1585289622758506677,8422,1585289622757912028,waist_imu_link,-0.496224731207,0.619087934494,-0.469114273787,0.387844115496,1.53839063253e-05,0.0,0.0,0.0,1.42406592124e-05,0.0,0.0,0.0,4.42580385726e-05,0.00132515130099,0.00776681909338,0.00376290455461,0.01,0.0,0.0,0.0,0.01,0.0,0.0,0.0,0.01,0.157063990831,9.47117996216,2.5372633934,0.01,0.0,0.0,0.0,0.01,0.0,0.0,0.0,0.01
1585289622783590686,8423,1585289622782966666,waist_imu_link,-0.4961566329,0.619120419025,-0.469171792269,0.387809634209,1.5352232117e-05,0.0,0.0,0.0,1.42175237725e-05,0.0,0.0,0.0,4.42722573236e-05,0.00175816263072,0.00401297304779,-0.000850807875395,0.01,0.0,0.0,0.0,0.01,0.0,0.0,0.0,0.01,0.148360043764,9.47912883759,2.50820064545,0.01,0.0,0.0,0.0,0.01,0.0,0.0,0.0,0.01
1585289622808595076,8424,1585289622807864062,waist_imu_link,-0.496127575636,0.619136691093,-0.469203799963,0.387782216072,1.53146351224e-05,0.0,0.0,0.0,1.41880693392e-05,0.0,0.0,0.0,4.42732894935e-05,-0.00224704667926,0.00372925400734,-0.00186353549361,0.01,0.0,0.0,0.0,0.01,0.0,0.0,0.0,0.01,0.183845996857,9.54467582703,2.51562404633,0.01,0.0,0.0,0.0,0.01,0.0,0.0,0.0,0.01
1585289622833728919,8425,1585289622833118511,waist_imu_link,-0.4960950315,0.619185686111,-0.469220519066,0.387725353241,1.53132971619e-05,0.0,0.0,0.0,1.41886920953e-05,0.0,0.0,0.0,4.4263325396e-05,-0.00479618739337,0.0066241202876,1.40890479088e-05,0.01,0.0,0.0,0.0,0.01,0.0,0.0,0.0,0.01,0.139351159334,9.45455265045,2.54647612572,0.01,0.0,0.0,0.0,0.01,0.0,0.0,0.0,0.01
1585289622858501624,8426,1585289622857870865,waist_imu_link,-0.49607360363,0.619239866734,-0.46922403574,0.387661904097,1.53133946898e-05,0.0,0.0,0.0,1.41902098729e-05,0.0,0.0,0.0,4.42500047141e-05,-0.00504479790106,0.0031849287916,0.000175282359123,0.01,0.0,0.0,0.0,0.01,0.0,0.0,0.0,0.01,0.129412904382,9.45400047302,2.55507612228,0.01,0.0,0.0,0.0,0.01,0.0,0.0,0.0,0.01
1585289622883646342,8427,1585289622883021859,waist_imu_link,-0.496115982533,0.619246244431,-0.469231516123,0.38758841157,1.53198091792e-05,0.0,0.0,0.0,1.41971648292e-05,0.0,0.0,0.0,4.42370660164e-05,-0.00384346139617,0.000502988230437,-0.00899838283658,0.01,0.0,0.0,0.0,0.01,0.0,0.0,0.0,0.01,0.124483928084,9.53247261047,2.4603843689,0.01,0.0,0.0,0.0,0.01,0.0,0.0,0.0,0.01
1585289622908307673,8428,1585289622907682878,waist_imu_link,-0.496135383844,0.619251430035,-0.469268202782,0.387510985136,1.53713120229e-05,0.0,0.0,0.0,1.42428840669e-05,0.0,0.0,0.0,4.42256064915e-05,-0.00410360749811,0.00479195825756,-0.00143378973007,0.01,0.0,0.0,0.0,0.01,0.0,0.0,0.0,0.01,0.14451444149,9.53078651428,2.53329706192,0.01,0.0,0.0,0.0,0.01,0.0,0.0,0.0,0.01
1585289622933608236,8429,1585289622932887684,waist_imu_link,-0.496104240417,0.619327425957,-0.469252854586,0.38744789362,1.54181853404e-05,0.0,0.0,0.0,1.42845274523e-05,0.0,0.0,0.0,4.42142607491e-05,-0.00124799716286,0.00404280936345,0.00373426824808,0.01,0.0,0.0,0.0,0.01,0.0,0.0,0.0,0.01,0.162156581879,9.49640464783,2.61191630363,0.01,0.0,0.0,0.0,0.01,0.0,0.0,0.0,0.01
1585289622958157550,8430,1585289622957619182,waist_imu_link,-0.496016323566,0.619348526001,-0.469309896231,0.387457668781,1.54574860251e-05,0.0,0.0,0.0,1.43201423962e-05,0.0,0.0,0.0,4.42088357612e-05,0.00716880476102,0.00535273645073,0.00249411910772,0.01,0.0,0.0,0.0,0.01,0.0,0.0,0.0,0.01,0.107386343181,9.44534873962,2.50911211967,0.01,0.0,0.0,0.0,0.01,0.0,0.0,0.0,0.01
1585289622983417600,8431,1585289622982795903,waist_imu_link,-0.495967358351,0.619365513325,-0.469393759966,0.387391656637,1.55128452834e-05,0.0,0.0,0.0,1.43691633587e-05,0.0,0.0,0.0,4.42004443005e-05,-0.00306869717315,0.0077096959576,-0.00394990667701,0.01,0.0,0.0,0.0,0.01,0.0,0.0,0.0,0.01,0.0872940123081,9.55830192566,2.48947906494,0.01,0.0,0.0,0.0,0.01,0.0,0.0,0.0,0.01
1585289623008340276,8432,1585289623007706930,waist_imu_link,-0.495930850506,0.619383871555,-0.469485878944,0.387297272682,1.55799678253e-05,0.0,0.0,0.0,1.44285354826e-05,0.0,0.0,0.0,4.41959620821e-05,0.005624496378,0.00712776603177,-0.00333390012383,0.01,0.0,0.0,0.0,0.01,0.0,0.0,0.0,0.01,0.17997713387,9.53674697876,2.57843780518,0.01,0.0,0.0,0.0,0.01,0.0,0.0,0.0,0.01
1585289623034044159,8433,1585289623033107097,waist_imu_link,-0.495842784643,0.619376063347,-0.469586849213,0.38730019331,1.56400358512e-05,0.0,0.0,0.0,1.44828066956e-05,0.0,0.0,0.0,4.42035042375e-05,0.00785558205098,0.00665477057919,0.00183310732245,0.01,0.0,0.0,0.0,0.01,0.0,0.0,0.0,0.01,0.20658877492,9.38796329498,2.5759267807,0.01,0.0,0.0,0.0,0.01,0.0,0.0,0.0,0.01
1585289623058462370,8434,1585289623057766245,waist_imu_link,-0.495821595192,0.619388222694,-0.469589442015,0.387304782867,1.57053896846e-05,0.0,0.0,0.0,1.45417277531e-05,0.0,0.0,0.0,4.42135333537e-05,-0.00526325870305,-0.00193411204964,-0.000487219542265,0.01,0.0,0.0,0.0,0.01,0.0,0.0,0.0,0.01,0.225593268871,9.44351291656,2.49785017967,0.01,0.0,0.0,0.0,0.01,0.0,0.0,0.0,0.01
1585289623083314615,8435,1585289623082607288,waist_imu_link,-0.495918780565,0.619421839714,-0.469475239515,0.387265056372,1.57705474463e-05,0.0,0.0,0.0,1.46000351977e-05,0.0,0.0,0.0,4.42202383949e-05,-0.0157458893955,-0.00731663871557,-0.00535268336535,0.01,0.0,0.0,0.0,0.01,0.0,0.0,0.0,0.01,0.211089462042,9.5525932312,2.51227545738,0.01,0.0,0.0,0.0,0.01,0.0,0.0,0.0,0.01
1585289623108134793,8436,1585289623107566049,waist_imu_link,-0.496049612761,0.619425237179,-0.469351321459,0.387242287397,1.58237824256e-05,0.0,0.0,0.0,1.46486416668e-05,0.0,0.0,0.0,4.42331974109e-05,-0.00654151244089,-0.00867481529713,-0.00555934756994,0.01,0.0,0.0,0.0,0.01,0.0,0.0,0.0,0.01,0.216384470463,9.5283164978,2.61602115631,0.01,0.0,0.0,0.0,0.01,0.0,0.0,0.0,0.01
1585289623133325683,8437,1585289623132759100,waist_imu_link,-0.496106624603,0.619387984276,-0.469305902719,0.387283742428,1.58693685785e-05,0.0,0.0,0.0,1.46902952113e-05,0.0,0.0,0.0,4.4242986771e-05,0.000858775922097,-0.00872604735196,-0.00199228897691,0.01,0.0,0.0,0.0,0.01,0.0,0.0,0.0,0.01,0.166954189539,9.43125629425,2.58352303505,0.01,0.0,0.0,0.0,0.01,0.0,0.0,0.0,0.01
1585289623158365001,8438,1585289623157787151,waist_imu_link,-0.49618819356,0.619354963303,-0.469243258238,0.387308090925,1.59088236822e-05,0.0,0.0,0.0,1.47254550251e-05,0.0,0.0,0.0,4.42407720756e-05,-0.00729380268604,-0.00918271206319,-0.00331502780318,0.01,0.0,0.0,0.0,0.01,0.0,0.0,0.0,0.01,0.124972209334,9.46091079712,2.493663311,0.01,0.0,0.0,0.0,0.01,0.0,0.0,0.0,0.01
1585289623184299735,8439,1585289623183533083,waist_imu_link,-0.496318846941,0.619334757328,-0.469142019749,0.387295663357,1.59390969432e-05,0.0,0.0,0.0,1.47520689591e-05,0.0,0.0,0.0,4.42324212515e-05,-0.0115407705307,-0.0105680990964,-0.00646167248487,0.01,0.0,0.0,0.0,0.01,0.0,0.0,0.0,0.01,0.136351823807,9.50547981262,2.5316824913,0.01,0.0,0.0,0.0,0.01,0.0,0.0,0.0,0.01
1585289623208550973,8440,1585289623207741495,waist_imu_link,-0.496462017298,0.619269311428,-0.469063162804,0.387312203646,1.59613353299e-05,0.0,0.0,0.0,1.47724177432e-05,0.0,0.0,0.0,4.42313606359e-05,-0.000156706897542,-0.00932925660163,-0.00677232444286,0.01,0.0,0.0,0.0,0.01,0.0,0.0,0.0,0.01,0.199740201235,9.51874160767,2.5909113884,0.01,0.0,0.0,0.0,0.01,0.0,0.0,0.0,0.01
1585289623232944553,8441,1585289623232379364,waist_imu_link,-0.49650734663,0.619240939617,-0.469011366367,0.387362271547,1.59821544828e-05,0.0,0.0,0.0,1.47913584687e-05,0.0,0.0,0.0,4.42286826831e-05,-0.000950495479628,-0.00572655489668,0.00120719522238,0.01,0.0,0.0,0.0,0.01,0.0,0.0,0.0,0.01,0.156186655164,9.44050121307,2.56414914131,0.01,0.0,0.0,0.0,0.01,0.0,0.0,0.0,0.01
1585289623258448840,8442,1585289623257671427,waist_imu_link,-0.496551722288,0.619228363037,-0.468967437744,0.38737860322,1.5989543235e-05,0.0,0.0,0.0,1.47984272075e-05,0.0,0.0,0.0,4.42227050373e-05,-0.00487055676058,-0.00637667439878,-0.00266113504767,0.01,0.0,0.0,0.0,0.01,0.0,0.0,0.0,0.01,0.120132192969,9.48623275757,2.53198099136,0.01,0.0,0.0,0.0,0.01,0.0,0.0,0.0,0.01
1585289623283169933,8443,1585289623282566674,waist_imu_link,-0.496682196856,0.61919438839,-0.468913555145,0.387331068516,1.59881209535e-05,0.0,0.0,0.0,1.47981925311e-05,0.0,0.0,0.0,4.42192753071e-05,-0.00801504962146,-0.0070037804544,-0.00871534273028,0.01,0.0,0.0,0.0,0.01,0.0,0.0,0.0,0.01,0.11563642323,9.49768352509,2.56375026703,0.01,0.0,0.0,0.0,0.01,0.0,0.0,0.0,0.01
1585289623308089128,8444,1585289623307461704,waist_imu_link,-0.496757775545,0.619142353535,-0.468921065331,0.387308061123,1.59754799191e-05,0.0,0.0,0.0,1.47901149883e-05,0.0,0.0,0.0,4.42335184401e-05,0.00378936342895,-0.00325350277126,-0.00341165065765,0.01,0.0,0.0,0.0,0.01,0.0,0.0,0.0,0.01,0.121902555227,9.52495765686,2.59204864502,0.01,0.0,0.0,0.0,0.01,0.0,0.0,0.0,0.01
1585289623333199406,8445,1585289623332465451,waist_imu_link,-0.496710389853,0.619152486324,-0.468964725733,0.387299835682,1.59480938894e-05,0.0,0.0,0.0,1.47677343735e-05,0.0,0.0,0.0,4.42316532195e-05,0.000768816913478,0.00662899296731,0.00375652313232,0.01,0.0,0.0,0.0,0.01,0.0,0.0,0.0,0.01,0.110484912992,9.46037864685,2.54749274254,0.01,0.0,0.0,0.0,0.01,0.0,0.0,0.0,0.01
1585289623358414384,8446,1585289623357660871,waist_imu_link,-0.496649026871,0.61921775341,-0.468989849091,0.387243837118,1.59400427604e-05,0.0,0.0,0.0,1.47616561521e-05,0.0,0.0,0.0,4.42268824811e-05,-0.00511193368584,0.00601528957486,0.00288178399205,0.01,0.0,0.0,0.0,0.01,0.0,0.0,0.0,0.01,0.078123524785,9.45146942139,2.54329800606,0.01,0.0,0.0,0.0,0.01,0.0,0.0,0.0,0.01
1585289623384011233,8447,1585289623383380288,waist_imu_link,-0.496669918299,0.619284033775,-0.468969583511,0.387135505676,1.59326722947e-05,0.0,0.0,0.0,1.47557516522e-05,0.0,0.0,0.0,4.4218340665e-05,-0.00759313581511,0.00666589755565,-0.00278678908944,0.01,0.0,0.0,0.0,0.01,0.0,0.0,0.0,0.01,0.123294129968,9.53358078003,2.54837656021,0.01,0.0,0.0,0.0,0.01,0.0,0.0,0.0,0.01
1585289623409218305,8448,1585289623408459264,waist_imu_link,-0.496584743261,0.619348406792,-0.469049274921,0.387045234442,1.59135273702e-05,0.0,0.0,0.0,1.47392826487e-05,0.0,0.0,0.0,4.42049102643e-05,0.00330726546235,0.0135121066123,0.00376711785793,0.01,0.0,0.0,0.0,0.01,0.0,0.0,0.0,0.01,0.176701128483,9.49757766724,2.58328771591,0.01,0.0,0.0,0.0,0.01,0.0,0.0,0.0,0.01
1585289623434111465,8449,1585289623433510813,waist_imu_link,-0.496459275484,0.619451582432,-0.469107598066,0.386970311403,1.58865019905e-05,0.0,0.0,0.0,1.47162630232e-05,0.0,0.0,0.0,4.41934263574e-05,0.00156492460519,0.0117582473904,0.00330454111099,0.01,0.0,0.0,0.0,0.01,0.0,0.0,0.0,0.01,0.13993024826,9.46988010406,2.56498217583,0.01,0.0,0.0,0.0,0.01,0.0,0.0,0.0,0.01
1585289623458942106,8450,1585289623458227396,waist_imu_link,-0.496374696493,0.619546532631,-0.469129145145,0.386900782585,1.58417732703e-05,0.0,0.0,0.0,1.46784252566e-05,0.0,0.0,0.0,4.41860183028e-05,-0.00330045772716,0.0105021214113,0.00561269745231,0.01,0.0,0.0,0.0,0.01,0.0,0.0,0.0,0.01,0.110270060599,9.43914604187,2.52763056755,0.01,0.0,0.0,0.0,0.01,0.0,0.0,0.0,0.01
1585289623484085375,8451,1585289623483484472,waist_imu_link,-0.496335983276,0.619621634483,-0.469128400087,0.386831104755,1.58337963031e-05,0.0,0.0,0.0,1.46721733136e-05,0.0,0.0,0.0,4.41786915214e-05,-0.00801021046937,0.00465470179915,0.00112326070666,0.01,0.0,0.0,0.0,0.01,0.0,0.0,0.0,0.01,0.136325836182,9.53986358643,2.4890525341,0.01,0.0,0.0,0.0,0.01,0.0,0.0,0.0,0.01
1585289623509230951,8452,1585289623508522168,waist_imu_link,-0.496286302805,0.619670808315,-0.469135969877,0.386806845665,1.58623404762e-05,0.0,0.0,0.0,1.46975173534e-05,0.0,0.0,0.0,4.41739817379e-05,-0.000407869229093,0.0031165885739,0.00313286110759,0.01,0.0,0.0,0.0,0.01,0.0,0.0,0.0,0.01,0.217176437378,9.45097160339,2.57074069977,0.01,0.0,0.0,0.0,0.01,0.0,0.0,0.0,0.01
1585289623533952750,8453,1585289623533368229,waist_imu_link,-0.496316939592,0.619727194309,-0.469053030014,0.386777669191,1.5929596103e-05,0.0,0.0,0.0,1.47555982489e-05,0.0,0.0,0.0,4.41649726008e-05,-0.0109282238409,-0.00567994499579,-0.000338934361935,0.01,0.0,0.0,0.0,0.01,0.0,0.0,0.0,0.01,0.207320928574,9.41987705231,2.57652997971,0.01,0.0,0.0,0.0,0.01,0.0,0.0,0.0,0.01
1585289623558946409,8454,1585289623558136405,waist_imu_link,-0.496466636658,0.619781851768,-0.468866169453,0.386724531651,1.60127345502e-05,0.0,0.0,0.0,1.48271989457e-05,0.0,0.0,0.0,4.41564551666e-05,-0.0200413744897,-0.0107630845159,-0.00292553007603,0.01,0.0,0.0,0.0,0.01,0.0,0.0,0.0,0.01,0.135934814811,9.50402832031,2.55395913124,0.01,0.0,0.0,0.0,0.01,0.0,0.0,0.0,0.01
1585289623583917035,8455,1585289623583217698,waist_imu_link,-0.496667683125,0.619792342186,-0.468661278486,0.386698067188,1.60885411364e-05,0.0,0.0,0.0,1.48926665616e-05,0.0,0.0,0.0,4.4150822932e-05,-0.0161998365074,-0.0183815434575,-0.00638087466359,0.01,0.0,0.0,0.0,0.01,0.0,0.0,0.0,0.01,0.132022589445,9.51910209656,2.60518527031,0.01,0.0,0.0,0.0,0.01,0.0,0.0,0.0,0.01
1585289623609119404,8456,1585289623608075904,waist_imu_link,-0.496853768826,0.619714379311,-0.46852222085,0.386752456427,1.61862803188e-05,0.0,0.0,0.0,1.49770677915e-05,0.0,0.0,0.0,4.41478564592e-05,0.00109844421968,-0.0194930769503,-0.00479500740767,0.01,0.0,0.0,0.0,0.01,0.0,0.0,0.0,0.01,0.175377428532,9.53944206238,2.63524651527,0.01,0.0,0.0,0.0,0.01,0.0,0.0,0.0,0.01
1585289623632961657,8457,1585289623632685008,waist_imu_link,-0.496896535158,0.619636237621,-0.468500286341,0.38684925437,1.62938647366e-05,0.0,0.0,0.0,1.50696735537e-05,0.0,0.0,0.0,4.41450281509e-05,0.00591174885631,-0.00568692618981,-0.000508584082127,0.01,0.0,0.0,0.0,0.01,0.0,0.0,0.0,0.01,0.106687307358,9.49901676178,2.58675670624,0.01,0.0,0.0,0.0,0.01,0.0,0.0,0.0,0.01
1585289623658082381,8458,1585289623657733117,waist_imu_link,-0.496897578239,0.61956346035,-0.468533098698,0.386924624443,1.6396463042e-05,0.0,0.0,0.0,1.515711745e-05,0.0,0.0,0.0,4.41356532843e-05,0.00377622712404,-0.00841974280775,-0.00227826088667,0.01,0.0,0.0,0.0,0.01,0.0,0.0,0.0,0.01,0.0395134240389,9.43718147278,2.53722190857,0.01,0.0,0.0,0.0,0.01,0.0,0.0,0.0,0.01
1585289623683518062,8459,1585289623682992080,waist_imu_link,-0.497006118298,0.619492888451,-0.468494236469,0.386945337057,1.64939126885e-05,0.0,0.0,0.0,1.5239681905e-05,0.0,0.0,0.0,4.41238361571e-05,-0.00307439686731,-0.00796933844686,-0.00591826811433,0.01,0.0,0.0,0.0,0.01,0.0,0.0,0.0,0.01,0.0767337679863,9.54717063904,2.50555300713,0.01,0.0,0.0,0.0,0.01,0.0,0.0,0.0,0.01
1585289623708561557,8460,1585289623707940685,waist_imu_link,-0.496991753578,0.619475185871,-0.468530476093,0.38694819808,1.65866251217e-05,0.0,0.0,0.0,1.53180191363e-05,0.0,0.0,0.0,4.41120352846e-05,0.00501011917368,0.00521579757333,0.00188886374235,0.01,0.0,0.0,0.0,0.01,0.0,0.0,0.0,0.01,0.134947985411,9.50630187988,2.55990195274,0.01,0.0,0.0,0.0,0.01,0.0,0.0,0.0,0.01
1585289623733844683,8461,1585289623733226757,waist_imu_link,-0.496896803379,0.619525492191,-0.468579649925,0.386930197477,1.66731516465e-05,0.0,0.0,0.0,1.53913946372e-05,0.0,0.0,0.0,4.41051636333e-05,-0.00140256504528,0.0087151248008,0.00468569993973,0.01,0.0,0.0,0.0,0.01,0.0,0.0,0.0,0.01,0.149889335036,9.41741371155,2.56940937042,0.01,0.0,0.0,0.0,0.01,0.0,0.0,0.0,0.01
1585289623758797687,8462,1585289623758062120,waist_imu_link,-0.496889740229,0.619577050209,-0.46856328845,0.38687646389,1.67544177618e-05,0.0,0.0,0.0,1.54597515163e-05,0.0,0.0,0.0,4.40944843313e-05,-0.00846098549664,-0.000164263416082,-0.00382676720619,0.01,0.0,0.0,0.0,0.01,0.0,0.0,0.0,0.01,0.133774712682,9.45459461212,2.52086400986,0.01,0.0,0.0,0.0,0.01,0.0,0.0,0.0,0.01
1585289623783492466,8463,1585289623782852385,waist_imu_link,-0.496959388256,0.619625747204,-0.468514144421,0.386768519878,1.68289371833e-05,0.0,0.0,0.0,1.55223176779e-05,0.0,0.0,0.0,4.4084816881e-05,-0.00939911883324,0.00172322022263,-0.00442048162222,0.01,0.0,0.0,0.0,0.01,0.0,0.0,0.0,0.01,0.143193855882,9.50497817993,2.53222990036,0.01,0.0,0.0,0.0,0.01,0.0,0.0,0.0,0.01
1585289623808702988,8464,1585289623808087971,waist_imu_link,-0.496971666813,0.619710803032,-0.468460232019,0.386681675911,1.68959449268e-05,0.0,0.0,0.0,1.55802472021e-05,0.0,0.0,0.0,4.40929685856e-05,-0.00678971037269,0.00353934988379,0.00361758470535,0.01,0.0,0.0,0.0,0.01,0.0,0.0,0.0,0.01,0.107940264046,9.53781604767,2.61313843727,0.01,0.0,0.0,0.0,0.01,0.0,0.0,0.0,0.01
1585289623833538106,8465,1585289623832911116,waist_imu_link,-0.496896952391,0.619768381119,-0.46846473217,0.386679917574,1.69567637141e-05,0.0,0.0,0.0,1.56345610835e-05,0.0,0.0,0.0,4.4117082352e-05,0.00484992843121,0.00228828401305,0.00416749715805,0.01,0.0,0.0,0.0,0.01,0.0,0.0,0.0,0.01,0.141548827291,9.51378154755,2.60977268219,0.01,0.0,0.0,0.0,0.01,0.0,0.0,0.0,0.01
1585289623858482629,8466,1585289623857827253,waist_imu_link,-0.496836751699,0.619769096375,-0.468493431807,0.386721402407,1.70093627305e-05,0.0,0.0,0.0,1.56794696208e-05,0.0,0.0,0.0,4.41200447611e-05,0.00300822360441,-0.00147762498818,0.000950902700424,0.01,0.0,0.0,0.0,0.01,0.0,0.0,0.0,0.01,0.158053696156,9.44707489014,2.57280778885,0.01,0.0,0.0,0.0,0.01,0.0,0.0,0.0,0.01
1585289623883651155,8467,1585289623883042660,waist_imu_link,-0.496852010489,0.61975222826,-0.468491375446,0.386731475592,1.70522607713e-05,0.0,0.0,0.0,1.57155295355e-05,0.0,0.0,0.0,4.41177366014e-05,0.000724458019249,-0.00382253224961,-0.00213194638491,0.01,0.0,0.0,0.0,0.01,0.0,0.0,0.0,0.01,0.202439576387,9.47931861877,2.53192925453,0.01,0.0,0.0,0.0,0.01,0.0,0.0,0.0,0.01
1585289623908464188,8468,1585289623907867614,waist_imu_link,-0.496896654367,0.619740366936,-0.46845138073,0.386741608381,1.70846562794e-05,0.0,0.0,0.0,1.57421353422e-05,0.0,0.0,0.0,4.41113282075e-05,-0.006923194509,-0.00551471114159,-0.00396504625678,0.01,0.0,0.0,0.0,0.01,0.0,0.0,0.0,0.01,0.209358915687,9.45476150513,2.54493308067,0.01,0.0,0.0,0.0,0.01,0.0,0.0,0.0,0.01
1585289623933586700,8469,1585289623932947055,waist_imu_link,-0.496973723173,0.619744598866,-0.468359798193,0.386746555567,1.71054642573e-05,0.0,0.0,0.0,1.57589345181e-05,0.0,0.0,0.0,4.4105862583e-05,-0.00630114087835,-0.00724432896823,-0.00139769166708,0.01,0.0,0.0,0.0,0.01,0.0,0.0,0.0,0.01,0.139820680022,9.56504821777,2.56742453575,0.01,0.0,0.0,0.0,0.01,0.0,0.0,0.0,0.01
1585289623958387083,8470,1585289623957683958,waist_imu_link,-0.496980130672,0.619751751423,-0.468346983194,0.386742472649,1.7130437488e-05,0.0,0.0,0.0,1.57814004698e-05,0.0,0.0,0.0,4.41193783206e-05,-0.00149194709957,-0.00189643562771,0.00153530016541,0.01,0.0,0.0,0.0,0.01,0.0,0.0,0.0,0.01,0.0973325669765,9.45685958862,2.61731719971,0.01,0.0,0.0,0.0,0.01,0.0,0.0,0.0,0.01
1585289623983595017,8471,1585289623982726529,waist_imu_link,-0.49700653553,0.619745910168,-0.468328922987,0.386739820242,1.71457574912e-05,0.0,0.0,0.0,1.57935640241e-05,0.0,0.0,0.0,4.41142459164e-05,0.00146627984941,-0.00468098651618,-0.00277505069971,0.01,0.0,0.0,0.0,0.01,0.0,0.0,0.0,0.01,0.126935511827,9.45985031128,2.57389330864,0.01,0.0,0.0,0.0,0.01,0.0,0.0,0.0,0.01
1585289624007485656,8472,1585289624007233573,waist_imu_link,-0.497031480074,0.619719326496,-0.468325048685,0.386754870415,1.71500385584e-05,0.0,0.0,0.0,1.57978298525e-05,0.0,0.0,0.0,4.41224301303e-05,-0.00352748529986,-0.000445525394753,-0.00047680363059,0.01,0.0,0.0,0.0,0.01,0.0,0.0,0.0,0.01,0.148860126734,9.47966957092,2.50273561478,0.01,0.0,0.0,0.0,0.01,0.0,0.0,0.0,0.01
1585289624032890309,8473,1585289624032534952,waist_imu_link,-0.496990859509,0.619793057442,-0.468327045441,0.386686503887,1.71710497193e-05,0.0,0.0,0.0,1.5816710639e-05,0.0,0.0,0.0,4.4134552032e-05,-0.00263562588952,0.00898942351341,0.00459363311529,0.01,0.0,0.0,0.0,0.01,0.0,0.0,0.0,0.01,0.150440424681,9.60403633118,2.54533004761,0.01,0.0,0.0,0.0,0.01,0.0,0.0,0.0,0.01
1585289624057754180,8474,1585289624057381367,waist_imu_link,-0.496861457825,0.619902849197,-0.468331962824,0.38667088747,1.72532271106e-05,0.0,0.0,0.0,1.58852453033e-05,0.0,0.0,0.0,4.41274528157e-05,0.00163594388869,0.00523002818227,0.0103143341839,0.01,0.0,0.0,0.0,0.01,0.0,0.0,0.0,0.01,0.119190037251,9.49230957031,2.61712121964,0.01,0.0,0.0,0.0,0.01,0.0,0.0,0.0,0.01
1585289624083595176,8475,1585289624082965131,waist_imu_link,-0.49673730135,0.619927883148,-0.468368649483,0.386745870113,1.73280309884e-05,0.0,0.0,0.0,1.59473289052e-05,0.0,0.0,0.0,4.41198171961e-05,0.0116289928555,0.00124414870515,0.00807880610228,0.01,0.0,0.0,0.0,0.01,0.0,0.0,0.0,0.01,0.152299657464,9.41332054138,2.61902761459,0.01,0.0,0.0,0.0,0.01,0.0,0.0,0.0,0.01
1585289624108478666,8476,1585289624107880678,waist_imu_link,-0.496664702892,0.619941234589,-0.468397498131,0.386782705784,1.74082415676e-05,0.0,0.0,0.0,1.60133430835e-05,0.0,0.0,0.0,4.41075896391e-05,-0.000781133421697,5.83089422435e-05,0.00028794631362,0.01,0.0,0.0,0.0,0.01,0.0,0.0,0.0,0.01,0.169902458787,9.37333106995,2.59151768684,0.01,0.0,0.0,0.0,0.01,0.0,0.0,0.0,0.01
1585289624133491655,8477,1585289624132795040,waist_imu_link,-0.496737778187,0.61992675066,-0.468386977911,0.386724859476,1.75021771629e-05,0.0,0.0,0.0,1.60905902377e-05,0.0,0.0,0.0,4.40938829094e-05,-0.00528768543154,-0.00225994945504,-0.0110892727971,0.01,0.0,0.0,0.0,0.01,0.0,0.0,0.0,0.01,0.193196579814,9.50616264343,2.59675335884,0.01,0.0,0.0,0.0,0.01,0.0,0.0,0.0,0.01
1585289624158569599,8478,1585289624157805199,waist_imu_link,-0.496769219637,0.619896054268,-0.468410551548,0.38670489192,1.7590752789e-05,0.0,0.0,0.0,1.61629853802e-05,0.0,0.0,0.0,4.40790668002e-05,0.00329381995834,0.00160217098892,0.0013719573617,0.01,0.0,0.0,0.0,0.01,0.0,0.0,0.0,0.01,0.139427453279,9.53692531586,2.61543560028,0.01,0.0,0.0,0.0,0.01,0.0,0.0,0.0,0.01
1585289624183071189,8479,1585289624182536719,waist_imu_link,-0.496626526117,0.619938194752,-0.468453496695,0.38676866889,1.76741899152e-05,0.0,0.0,0.0,1.62309308136e-05,0.0,0.0,0.0,4.40645717203e-05,0.00907589495182,0.00260558724403,0.0122254937887,0.01,0.0,0.0,0.0,0.01,0.0,0.0,0.0,0.01,0.144658386707,9.45598983765,2.59505581856,0.01,0.0,0.0,0.0,0.01,0.0,0.0,0.0,0.01
1585289624208045144,8480,1585289624207528119,waist_imu_link,-0.496608972549,0.619943320751,-0.468406200409,0.386840432882,1.77517692737e-05,0.0,0.0,0.0,1.62953012409e-05,0.0,0.0,0.0,4.40630559746e-05,-0.00100145081524,-0.0107260923833,-0.000323824584484,0.01,0.0,0.0,0.0,0.01,0.0,0.0,0.0,0.01,0.15901003778,9.39245796204,2.63415408134,0.01,0.0,0.0,0.0,0.01,0.0,0.0,0.0,0.01
1585289624233597493,8481,1585289624232847721,waist_imu_link,-0.49667429924,0.619870960712,-0.468373835087,0.386911690235,1.78232206309e-05,0.0,0.0,0.0,1.6354610378e-05,0.0,0.0,0.0,4.40637752426e-05,0.00386143429205,-0.00736317783594,-0.00326555222273,0.01,0.0,0.0,0.0,0.01,0.0,0.0,0.0,0.01,0.178346633911,9.4931936264,2.58554267883,0.01,0.0,0.0,0.0,0.01,0.0,0.0,0.0,0.01
1585289624258003844,8482,1585289624257398431,waist_imu_link,-0.496680468321,0.619870841503,-0.468377441168,0.386899620295,1.78861626813e-05,0.0,0.0,0.0,1.64056174551e-05,0.0,0.0,0.0,4.40554975645e-05,-0.00628635240719,-0.00073453062214,0.000164911150932,0.01,0.0,0.0,0.0,0.01,0.0,0.0,0.0,0.01,0.134945526719,9.46267032623,2.5907804966,0.01,0.0,0.0,0.0,0.01,0.0,0.0,0.0,0.01
1585289624283326021,8483,1585289624282663586,waist_imu_link,-0.496710240841,0.619930922985,-0.46828892827,0.386872142553,1.79397522151e-05,0.0,0.0,0.0,1.64483041855e-05,0.0,0.0,0.0,4.40445866338e-05,-0.0039383796975,-0.002491440624,0.00537101738155,0.01,0.0,0.0,0.0,0.01,0.0,0.0,0.0,0.01,0.083049915731,9.49224376678,2.6056227684,0.01,0.0,0.0,0.0,0.01,0.0,0.0,0.0,0.01
1585289624307854371,8484,1585289624307337820,waist_imu_link,-0.496671110392,0.619960427284,-0.468283057213,0.386882126331,1.7995536126e-05,0.0,0.0,0.0,1.64930572878e-05,0.0,0.0,0.0,4.4035788807e-05,-0.000272446544841,-0.000619963975623,0.00282270461321,0.01,0.0,0.0,0.0,0.01,0.0,0.0,0.0,0.01,0.0962164998055,9.47301483154,2.56905412674,0.01,0.0,0.0,0.0,0.01,0.0,0.0,0.0,0.01
1585289624332928315,8485,1585289624332430253,waist_imu_link,-0.496663063765,0.619955003262,-0.468296855688,0.386884510517,1.80462709377e-05,0.0,0.0,0.0,1.65344924105e-05,0.0,0.0,0.0,4.40354840324e-05,0.00544280558825,-0.000113353366032,-0.000453550368547,0.01,0.0,0.0,0.0,0.01,0.0,0.0,0.0,0.01,0.174253955483,9.50079536438,2.57295560837,0.01,0.0,0.0,0.0,0.01,0.0,0.0,0.0,0.01
1585289624358109517,8486,1585289624357582423,waist_imu_link,-0.496607810259,0.619956672192,-0.468356400728,0.386880874634,1.80874053495e-05,0.0,0.0,0.0,1.65675482636e-05,0.0,0.0,0.0,4.40328304616e-05,0.000868485309184,0.0038687302731,-0.000146150588989,0.01,0.0,0.0,0.0,0.01,0.0,0.0,0.0,0.01,0.187682807446,9.42793464661,2.55847072601,0.01,0.0,0.0,0.0,0.01,0.0,0.0,0.0,0.01
1585289624382867819,8487,1585289624382227999,waist_imu_link,-0.496597856283,0.619988024235,-0.468359023333,0.386840164661,1.81182708892e-05,0.0,0.0,0.0,1.65927551549e-05,0.0,0.0,0.0,4.40371745156e-05,-0.00695838872343,0.00163445062935,-0.000461097806692,0.01,0.0,0.0,0.0,0.01,0.0,0.0,0.0,0.01,0.147378191352,9.43492889404,2.51533198357,0.01,0.0,0.0,0.0,0.01,0.0,0.0,0.0,0.01
1585289624407827752,8488,1585289624407276596,waist_imu_link,-0.49665632844,0.620031237602,-0.468307465315,0.386758267879,1.81394608512e-05,0.0,0.0,0.0,1.66082468478e-05,0.0,0.0,0.0,4.40285717445e-05,-0.0099920462817,-0.00126378820278,-0.00449984893203,0.01,0.0,0.0,0.0,0.01,0.0,0.0,0.0,0.01,0.107173249125,9.56247138977,2.49488806725,0.01,0.0,0.0,0.0,0.01,0.0,0.0,0.0,0.01
1585289624432784749,8489,1585289624432281663,waist_imu_link,-0.496692478657,0.620019078255,-0.468308627605,0.386729985476,1.81657811856e-05,0.0,0.0,0.0,1.66274588226e-05,0.0,0.0,0.0,4.40153079539e-05,0.00590135157108,0.00101374601945,-0.000283069908619,0.01,0.0,0.0,0.0,0.01,0.0,0.0,0.0,0.01,0.150440379977,9.53164577484,2.59971427917,0.01,0.0,0.0,0.0,0.01,0.0,0.0,0.0,0.01
1585289624457802111,8490,1585289624457186550,waist_imu_link,-0.496600478888,0.61997038126,-0.468413889408,0.386798530817,1.81925261727e-05,0.0,0.0,0.0,1.66468282644e-05,0.0,0.0,0.0,4.40006706458e-05,0.0148703334853,0.00224789860658,0.000960037112236,0.01,0.0,0.0,0.0,0.01,0.0,0.0,0.0,0.01,0.160781741142,9.41765594482,2.55427598953,0.01,0.0,0.0,0.0,0.01,0.0,0.0,0.0,0.01
1585289624483007532,8491,1585289624482392000,waist_imu_link,-0.496535897255,0.619933784008,-0.468476474285,0.386864423752,1.82173632707e-05,0.0,0.0,0.0,1.66650497218e-05,0.0,0.0,0.0,4.39898166064e-05,0.000936848809943,-0.00178465386853,0.000513393431902,0.01,0.0,0.0,0.0,0.01,0.0,0.0,0.0,0.01,0.168369710445,9.47923946381,2.48012638092,0.01,0.0,0.0,0.0,0.01,0.0,0.0,0.0,0.01
1585289624507880288,8492,1585289624507250046,waist_imu_link,-0.496591985226,0.619940578938,-0.468411624432,0.386859953403,1.82443663003e-05,0.0,0.0,0.0,1.66847635588e-05,0.0,0.0,0.0,4.39762846142e-05,-0.00827741995454,-0.00667610112578,-0.00427379831672,0.01,0.0,0.0,0.0,0.01,0.0,0.0,0.0,0.01,0.143021836877,9.48558044434,2.57888221741,0.01,0.0,0.0,0.0,0.01,0.0,0.0,0.0,0.01
1585289624533097065,8493,1585289624532438143,waist_imu_link,-0.496633350849,0.61989402771,-0.468408316374,0.386885344982,1.82605234177e-05,0.0,0.0,0.0,1.66963825825e-05,0.0,0.0,0.0,4.39707255255e-05,0.00410376489162,-0.00203486648388,-0.00162246450782,0.01,0.0,0.0,0.0,0.01,0.0,0.0,0.0,0.01,0.151020377874,9.50032806396,2.55200457573,0.01,0.0,0.0,0.0,0.01,0.0,0.0,0.0,0.01
1585289624558201891,8494,1585289624557454582,waist_imu_link,-0.49660924077,0.619857251644,-0.468448549509,0.386926740408,1.82671187401e-05,0.0,0.0,0.0,1.670063622e-05,0.0,0.0,0.0,4.39699331115e-05,0.00431656837463,-0.00188013259321,0.000916626304388,0.01,0.0,0.0,0.0,0.01,0.0,0.0,0.0,0.01,0.151074752212,9.46937179565,2.4823243618,0.01,0.0,0.0,0.0,0.01,0.0,0.0,0.0,0.01
1585289624582872265,8495,1585289624582188291,waist_imu_link,-0.496616214514,0.619852662086,-0.468444049358,0.38693061471,1.82702863641e-05,0.0,0.0,0.0,1.67033578571e-05,0.0,0.0,0.0,4.39795558615e-05,-0.00599815277383,-0.00410132855177,-0.00116424635053,0.01,0.0,0.0,0.0,0.01,0.0,0.0,0.0,0.01,0.116007760167,9.49566936493,2.48398160934,0.01,0.0,0.0,0.0,0.01,0.0,0.0,0.0,0.01
1585289624607744834,8496,1585289624607138326,waist_imu_link,-0.496677130461,0.619854569435,-0.468403339386,0.386898577213,1.82986161791e-05,0.0,0.0,0.0,1.67280913318e-05,0.0,0.0,0.0,4.39977326187e-05,-0.00624735094607,-0.00379272527061,-0.00183633342385,0.01,0.0,0.0,0.0,0.01,0.0,0.0,0.0,0.01,0.128615066409,9.5166759491,2.54626512527,0.01,0.0,0.0,0.0,0.01,0.0,0.0,0.0,0.01
1585289624633083404,8497,1585289624632268408,waist_imu_link,-0.496703982353,0.619839310646,-0.468394160271,0.386899650097,1.83156774612e-05,0.0,0.0,0.0,1.67411143505e-05,0.0,0.0,0.0,4.39975660086e-05,0.00363554921933,-0.00192730454728,-0.000323198735714,0.01,0.0,0.0,0.0,0.01,0.0,0.0,0.0,0.01,0.150625661016,9.47059249878,2.57027173042,0.01,0.0,0.0,0.0,0.01,0.0,0.0,0.0,0.01
1585289624657079288,8498,1585289624656743149,waist_imu_link,-0.496658474207,0.619879126549,-0.468396246433,0.386891752481,1.83251153146e-05,0.0,0.0,0.0,1.67471346647e-05,0.0,0.0,0.0,4.3991921583e-05,0.000125402119011,0.00308891572058,0.00386389344931,0.01,0.0,0.0,0.0,0.01,0.0,0.0,0.0,0.01,0.163478165865,9.49746799469,2.60194826126,0.01,0.0,0.0,0.0,0.01,0.0,0.0,0.0,0.01
1585289624682074435,8499,1585289624681711430,waist_imu_link,-0.496596246958,0.619905591011,-0.468415915966,0.386905521154,1.8317479695e-05,0.0,0.0,0.0,1.67391394111e-05,0.0,0.0,0.0,4.39883293064e-05,0.00186192442197,0.00109389156569,0.000728499144316,0.01,0.0,0.0,0.0,0.01,0.0,0.0,0.0,0.01,0.148341432214,9.48884963989,2.54476547241,0.01,0.0,0.0,0.0,0.01,0.0,0.0,0.0,0.01
1585289624708264414,8500,1585289624707271573,waist_imu_link,-0.496613234282,0.619876563549,-0.468428075314,0.386915355921,1.82963425606e-05,0.0,0.0,0.0,1.67197709853e-05,0.0,0.0,0.0,4.39840218253e-05,0.00195492431521,-0.00200683460571,-0.00469877570868,0.01,0.0,0.0,0.0,0.01,0.0,0.0,0.0,0.01,0.187732040882,9.43631839752,2.58163523674,0.01,0.0,0.0,0.0,0.01,0.0,0.0,0.0,0.01
1585289624732757251,8501,1585289624732009349,waist_imu_link,-0.496577888727,0.619873642921,-0.468468368053,0.386916697025,1.82627990681e-05,0.0,0.0,0.0,1.66899884114e-05,0.0,0.0,0.0,4.39784546093e-05,0.00772050395608,0.00391760654747,0.000139478594065,0.01,0.0,0.0,0.0,0.01,0.0,0.0,0.0,0.01,0.159950107336,9.49967002869,2.58855295181,0.01,0.0,0.0,0.0,0.01,0.0,0.0,0.0,0.01
1585289624758839153,8502,1585289624758042900,waist_imu_link,-0.496537566185,0.619860708714,-0.468501716852,0.386948794127,1.82136247023e-05,0.0,0.0,0.0,1.66471757074e-05,0.0,0.0,0.0,4.39728589477e-05,-0.000450686900876,-0.00181851908565,-0.000329721719027,0.01,0.0,0.0,0.0,0.01,0.0,0.0,0.0,0.01,0.166012227535,9.45034885406,2.58659744263,0.01,0.0,0.0,0.0,0.01,0.0,0.0,0.0,0.01
1585289624782984428,8503,1585289624782227278,waist_imu_link,-0.496605932713,0.619889497757,-0.46841520071,0.386919587851,1.81836694228e-05,0.0,0.0,0.0,1.66207964499e-05,0.0,0.0,0.0,4.39692829257e-05,-0.00829680915922,-0.00468213669956,-0.00399762392044,0.01,0.0,0.0,0.0,0.01,0.0,0.0,0.0,0.01,0.21297582984,9.47076129913,2.61666965485,0.01,0.0,0.0,0.0,0.01,0.0,0.0,0.0,0.01
1585289624807464305,8504,1585289624806920104,waist_imu_link,-0.496675014496,0.619903922081,-0.468366146088,0.38686722517,1.81421225494e-05,0.0,0.0,0.0,1.65843636942e-05,0.0,0.0,0.0,4.39622609189e-05,-0.00397990318015,-0.000489373225719,-0.00324715301394,0.01,0.0,0.0,0.0,0.01,0.0,0.0,0.0,0.01,0.118800774217,9.53112792969,2.59896230698,0.01,0.0,0.0,0.0,0.01,0.0,0.0,0.0,0.01
1585289624832798928,8505,1585289624832192589,waist_imu_link,-0.496632665396,0.619921147823,-0.468400418758,0.386852473021,1.81393226867e-05,0.0,0.0,0.0,1.65798286482e-05,0.0,0.0,0.0,4.39511508688e-05,-0.00016062927898,0.00654901983216,0.00320200622082,0.01,0.0,0.0,0.0,0.01,0.0,0.0,0.0,0.01,0.120131410658,9.45982456207,2.56024456024,0.01,0.0,0.0,0.0,0.01,0.0,0.0,0.0,0.01
1585289624858535174,8506,1585289624857950270,waist_imu_link,-0.496551066637,0.620015025139,-0.46842700243,0.386774718761,1.81319451096e-05,0.0,0.0,0.0,1.65754002732e-05,0.0,0.0,0.0,4.39715870217e-05,-0.00114432256669,0.0107802879065,0.00313853845,0.01,0.0,0.0,0.0,0.01,0.0,0.0,0.0,0.01,0.156832873821,9.42695331573,2.58098602295,0.01,0.0,0.0,0.0,0.01,0.0,0.0,0.0,0.01
1585289624883717485,8507,1585289624882993674,waist_imu_link,-0.496503800154,0.6200543046,-0.468436658382,0.386760532856,1.81422058544e-05,0.0,0.0,0.0,1.65837825906e-05,0.0,0.0,0.0,4.39764796699e-05,-0.00639653485268,0.000921885133721,-0.0010131932795,0.01,0.0,0.0,0.0,0.01,0.0,0.0,0.0,0.01,0.2609988451,9.42361927032,2.50823760033,0.01,0.0,0.0,0.0,0.01,0.0,0.0,0.0,0.01
1585289624908541250,8508,1585289624907930490,waist_imu_link,-0.496623426676,0.620168685913,-0.468248546124,0.386651396751,1.82412210264e-05,0.0,0.0,0.0,1.66645539551e-05,0.0,0.0,0.0,4.39672714133e-05,-0.0284900609404,-0.00625410210341,-0.00191715732217,0.01,0.0,0.0,0.0,0.01,0.0,0.0,0.0,0.01,0.25706371665,9.47374343872,2.52670288086,0.01,0.0,0.0,0.0,0.01,0.0,0.0,0.0,0.01
1585289624933999477,8509,1585289624932863509,waist_imu_link,-0.496713846922,0.620411396027,-0.46798786521,0.386461496353,1.83455738176e-05,0.0,0.0,0.0,1.67498715407e-05,0.0,0.0,0.0,4.3960700473e-05,-0.0323379151523,0.00471305986866,0.00792809017003,0.01,0.0,0.0,0.0,0.01,0.0,0.0,0.0,0.01,0.23647865653,9.59566688538,2.6192677021,0.01,0.0,0.0,0.0,0.01,0.0,0.0,0.0,0.01
1585289624958395082,8510,1585289624957818357,waist_imu_link,-0.496804594994,0.62056773901,-0.467781960964,0.386342972517,1.84538805512e-05,0.0,0.0,0.0,1.68408396473e-05,0.0,0.0,0.0,4.39749273513e-05,-0.0248538907617,-0.00519706541672,-0.00317867472768,0.01,0.0,0.0,0.0,0.01,0.0,0.0,0.0,0.01,0.234700962901,9.30582904816,2.6607196331,0.01,0.0,0.0,0.0,0.01,0.0,0.0,0.0,0.01
1585289624983433401,8511,1585289624982844560,waist_imu_link,-0.497068285942,0.62061727047,-0.467550754547,0.386204272509,1.85595235548e-05,0.0,0.0,0.0,1.69292913317e-05,0.0,0.0,0.0,4.39882886697e-05,-0.026003876701,-0.0111667336896,-0.0126128122211,0.01,0.0,0.0,0.0,0.01,0.0,0.0,0.0,0.01,0.273450195789,9.42675876617,2.64321327209,0.01,0.0,0.0,0.0,0.01,0.0,0.0,0.0,0.01
1585289625008366860,8512,1585289625007772644,waist_imu_link,-0.497390687466,0.620647907257,-0.46728977561,0.386055618525,1.86637097359e-05,0.0,0.0,0.0,1.70156715647e-05,0.0,0.0,0.0,4.39966394938e-05,-0.0333049818873,-0.0153496656567,-0.0141293406487,0.01,0.0,0.0,0.0,0.01,0.0,0.0,0.0,0.01,0.262159109116,9.41676712036,2.68118214607,0.01,0.0,0.0,0.0,0.01,0.0,0.0,0.0,0.01
1585289625033481207,8513,1585289625032858785,waist_imu_link,-0.497729361057,0.620707631111,-0.466995596886,0.385879188776,1.87699643205e-05,0.0,0.0,0.0,1.71055699125e-05,0.0,0.0,0.0,4.40203509576e-05,-0.0312909521163,-0.0123884435743,-0.0134712234139,0.01,0.0,0.0,0.0,0.01,0.0,0.0,0.0,0.01,0.160264328122,9.50912094116,2.69751954079,0.01,0.0,0.0,0.0,0.01,0.0,0.0,0.0,0.01
1585289625058487427,8514,1585289625057794745,waist_imu_link,-0.498021960258,0.620666265488,-0.466807246208,0.385796010494,1.88715091217e-05,0.0,0.0,0.0,1.71896490972e-05,0.0,0.0,0.0,4.40312618883e-05,-0.0118756536394,-0.0138994557783,-0.0125914588571,0.01,0.0,0.0,0.0,0.01,0.0,0.0,0.0,0.01,0.146902233362,9.58742523193,2.68551635742,0.01,0.0,0.0,0.0,0.01,0.0,0.0,0.0,0.01
1585289625083165371,8515,1585289625082644186,waist_imu_link,-0.498147726059,0.620663523674,-0.466743052006,0.385715663433,1.89667816616e-05,0.0,0.0,0.0,1.72674864982e-05,0.0,0.0,0.0,4.40354027592e-05,-0.00720763532445,0.00182679714635,-0.00447028502822,0.01,0.0,0.0,0.0,0.01,0.0,0.0,0.0,0.01,0.11781039834,9.48375988007,2.6515622139,0.01,0.0,0.0,0.0,0.01,0.0,0.0,0.0,0.01
1585289625108314242,8516,1585289625107740517,waist_imu_link,-0.498085737228,0.620708465576,-0.466831624508,0.385616362095,1.90556905079e-05,0.0,0.0,0.0,1.73402138451e-05,0.0,0.0,0.0,4.40417258162e-05,0.00701318588108,0.01105462946,-0.00123688951135,0.01,0.0,0.0,0.0,0.01,0.0,0.0,0.0,0.01,0.114366069436,9.46149349213,2.72248005867,0.01,0.0,0.0,0.0,0.01,0.0,0.0,0.0,0.01
1585289625133416239,8517,1585289625132741391,waist_imu_link,-0.498019397259,0.620666861534,-0.466978907585,0.385590553284,1.91371791086e-05,0.0,0.0,0.0,1.74077620555e-05,0.0,0.0,0.0,4.40568914003e-05,0.0125280497596,0.00665751285851,-0.00646236166358,0.01,0.0,0.0,0.0,0.01,0.0,0.0,0.0,0.01,0.166881948709,9.52035903931,2.61941790581,0.01,0.0,0.0,0.0,0.01,0.0,0.0,0.0,0.01
1585289625158540628,8518,1585289625157816467,waist_imu_link,-0.497939556837,0.620579302311,-0.467184633017,0.385585486889,1.92124218618e-05,0.0,0.0,0.0,1.74680525669e-05,0.0,0.0,0.0,4.40571392837e-05,0.0177885554731,0.00815784558654,-0.00730489566922,0.01,0.0,0.0,0.0,0.01,0.0,0.0,0.0,0.01,0.247983455658,9.52495098114,2.61577796936,0.01,0.0,0.0,0.0,0.01,0.0,0.0,0.0,0.01
1585289625183463587,8519,1585289625182731109,waist_imu_link,-0.497825473547,0.620541512966,-0.467349022627,0.385594248772,1.92853219142e-05,0.0,0.0,0.0,1.75253725418e-05,0.0,0.0,0.0,4.40507959083e-05,0.0121958050877,0.00640577357262,-0.000895775854588,0.01,0.0,0.0,0.0,0.01,0.0,0.0,0.0,0.01,0.238080874085,9.46101093292,2.64690113068,0.01,0.0,0.0,0.0,0.01,0.0,0.0,0.0,0.01
1585289625208262981,8520,1585289625207666182,waist_imu_link,-0.497711747885,0.620437979698,-0.467490166426,0.385736644268,1.93553774038e-05,0.0,0.0,0.0,1.75798438901e-05,0.0,0.0,0.0,4.40421525007e-05,0.0269454605877,-0.00522987637669,0.00285585969687,0.01,0.0,0.0,0.0,0.01,0.0,0.0,0.0,0.01,0.145106494427,9.52357959747,2.60118532181,0.01,0.0,0.0,0.0,0.01,0.0,0.0,0.0,0.01
1585289625233230332,8521,1585289625232608900,waist_imu_link,-0.497649729252,0.620257377625,-0.467613786459,0.385957211256,1.94167833901e-05,0.0,0.0,0.0,1.76276508338e-05,0.0,0.0,0.0,4.40374305262e-05,0.0182153917849,-0.0146603640169,-0.0040983222425,0.01,0.0,0.0,0.0,0.01,0.0,0.0,0.0,0.01,0.184710383415,9.46298408508,2.57923150063,0.01,0.0,0.0,0.0,0.01,0.0,0.0,0.0,0.01
1585289625258264387,8522,1585289625257728459,waist_imu_link,-0.497751533985,0.62003827095,-0.467673897743,0.386105060577,1.9476275392e-05,0.0,0.0,0.0,1.76756467378e-05,0.0,0.0,0.0,4.40461673981e-05,0.0157781597227,-0.0141848456115,-0.013267647475,0.01,0.0,0.0,0.0,0.01,0.0,0.0,0.0,0.01,0.292649269104,9.54872512817,2.65350222588,0.01,0.0,0.0,0.0,0.01,0.0,0.0,0.0,0.01
1585289625283054890,8523,1585289625282546182,waist_imu_link,-0.497771173716,0.619634747505,-0.467965751886,0.386373788118,1.95873758928e-05,0.0,0.0,0.0,1.77688874471e-05,0.0,0.0,0.0,4.40755070329e-05,0.0501021295786,-0.016108982265,-0.00726729631424,0.01,0.0,0.0,0.0,0.01,0.0,0.0,0.0,0.01,0.225807368755,9.4056634903,2.6748714447,0.01,0.0,0.0,0.0,0.01,0.0,0.0,0.0,0.01
1585289625308462122,8524,1585289625307642622,waist_imu_link,-0.497841447592,0.619378566742,-0.468037426472,0.386607199907,1.96965928866e-05,0.0,0.0,0.0,1.78580441767e-05,0.0,0.0,0.0,4.40877792901e-05,0.0114502683282,-0.0301898177713,-0.00972883403301,0.01,0.0,0.0,0.0,0.01,0.0,0.0,0.0,0.01,0.179242163897,9.46800041199,2.61201167107,0.01,0.0,0.0,0.0,0.01,0.0,0.0,0.0,0.01
1585289625333379151,8525,1585289625332585668,waist_imu_link,-0.498105734587,0.619031488895,-0.467980742455,0.38689109683,1.98009355186e-05,0.0,0.0,0.0,1.79408900402e-05,0.0,0.0,0.0,4.40859100059e-05,0.0146753117442,-0.0420936718583,-0.016904655844,0.01,0.0,0.0,0.0,0.01,0.0,0.0,0.0,0.01,0.0721422731876,9.50521469116,2.52937817574,0.01,0.0,0.0,0.0,0.01,0.0,0.0,0.0,0.01
1585289625358565674,8526,1585289625357721669,waist_imu_link,-0.498326122761,0.618695318699,-0.467958837748,0.38717135787,1.9901565996e-05,0.0,0.0,0.0,1.80194060727e-05,0.0,0.0,0.0,4.40764863753e-05,0.0138774234802,-0.0301453247666,-0.00700138509274,0.01,0.0,0.0,0.0,0.01,0.0,0.0,0.0,0.01,0.0509667024016,9.48723602295,2.51718211174,0.01,0.0,0.0,0.0,0.01,0.0,0.0,0.0,0.01
1585289625382168399,8527,1585289625382006369,waist_imu_link,-0.498435616493,0.618481814861,-0.467917203903,0.38742184639,1.99986163877e-05,0.0,0.0,0.0,1.80941164862e-05,0.0,0.0,0.0,4.40627105634e-05,0.0174513254315,-0.0256565008312,-0.00332284346223,0.01,0.0,0.0,0.0,0.01,0.0,0.0,0.0,0.01,0.0477043054998,9.40533733368,2.58008050919,0.01,0.0,0.0,0.0,0.01,0.0,0.0,0.0,0.01
1585289625407255620,8528,1585289625407067856,waist_imu_link,-0.498540610075,0.618187129498,-0.467960327864,0.387704849243,2.01036478103e-05,0.0,0.0,0.0,1.81790571672e-05,0.0,0.0,0.0,4.40756573884e-05,0.0183102693409,-0.0258818604052,-0.00945600122213,0.01,0.0,0.0,0.0,0.01,0.0,0.0,0.0,0.01,-0.055211674422,9.50196170807,2.44295048714,0.01,0.0,0.0,0.0,0.01,0.0,0.0,0.0,0.01
1585289625432941372,8529,1585289625432238516,waist_imu_link,-0.498673886061,0.617981493473,-0.467992931604,0.387822091579,2.02392725073e-05,0.0,0.0,0.0,1.82883147976e-05,0.0,0.0,0.0,4.40854833215e-05,0.00863986928016,-0.00940992124379,-0.0100386887789,0.01,0.0,0.0,0.0,0.01,0.0,0.0,0.0,0.01,-0.081293463707,9.61921977997,2.39539361,0.01,0.0,0.0,0.0,0.01,0.0,0.0,0.0,0.01
1585289625457915350,8530,1585289625457320764,waist_imu_link,-0.4986589849,0.617847979069,-0.468151092529,0.387863129377,2.03786946957e-05,0.0,0.0,0.0,1.83996062905e-05,0.0,0.0,0.0,4.40902174869e-05,0.0196912400424,0.00339481420815,-0.00643034279346,0.01,0.0,0.0,0.0,0.01,0.0,0.0,0.0,0.01,-0.0276518110186,9.46761322021,2.53271770477,0.01,0.0,0.0,0.0,0.01,0.0,0.0,0.0,0.01
1585289625483261115,8531,1585289625482574533,waist_imu_link,-0.498561501503,0.617834210396,-0.468264222145,0.387873768806,2.05168693401e-05,0.0,0.0,0.0,1.8509918441e-05,0.0,0.0,0.0,4.40971622841e-05,0.00177388964221,0.00531768519431,0.000906340777874,0.01,0.0,0.0,0.0,0.01,0.0,0.0,0.0,0.01,0.0554324388504,9.41806983948,2.51279807091,0.01,0.0,0.0,0.0,0.01,0.0,0.0,0.0,0.01
1585289625507947320,8532,1585289625507342202,waist_imu_link,-0.498528569937,0.617890238762,-0.468267321587,0.387823075056,2.06532925465e-05,0.0,0.0,0.0,1.86172214503e-05,0.0,0.0,0.0,4.40959431857e-05,-0.00528123788536,0.00470688659698,0.00295071676373,0.01,0.0,0.0,0.0,0.01,0.0,0.0,0.0,0.01,0.0238291006535,9.5087518692,2.49127411842,0.01,0.0,0.0,0.0,0.01,0.0,0.0,0.0,0.01
1585289625532976479,8533,1585289625532389261,waist_imu_link,-0.498426020145,0.618020117283,-0.468256831169,0.387760400772,2.07883320762e-05,0.0,0.0,0.0,1.87254712926e-05,0.0,0.0,0.0,4.41099059261e-05,-0.00392078887671,0.00854385830462,0.0102781914175,0.01,0.0,0.0,0.0,0.01,0.0,0.0,0.0,0.01,-0.0212609767914,9.57553482056,2.57334041595,0.01,0.0,0.0,0.0,0.01,0.0,0.0,0.0,0.01
1585289625557994941,8534,1585289625557417772,waist_imu_link,-0.498207569122,0.61809772253,-0.468357890844,0.387795597315,2.09222215897e-05,0.0,0.0,0.0,1.88310431822e-05,0.0,0.0,0.0,4.41149773754e-05,0.0180045533925,0.0140143027529,0.0138350315392,0.01,0.0,0.0,0.0,0.01,0.0,0.0,0.0,0.01,0.0205380097032,9.56928920746,2.64411592484,0.01,0.0,0.0,0.0,0.01,0.0,0.0,0.0,0.01
1585289625582782108,8535,1585289625582218305,waist_imu_link,-0.497870951891,0.618101537228,-0.468599677086,0.387929648161,2.1054650217e-05,0.0,0.0,0.0,1.89380942445e-05,0.0,0.0,0.0,4.41392171152e-05,0.0292914062738,0.0159824118018,0.0153991598636,0.01,0.0,0.0,0.0,0.01,0.0,0.0,0.0,0.01,0.0421391651034,9.40757369995,2.56485509872,0.01,0.0,0.0,0.0,0.01,0.0,0.0,0.0,0.01
1585289625607763419,8536,1585289625607170783,waist_imu_link,-0.497605264187,0.618058443069,-0.468827933073,0.388063341379,2.11849657404e-05,0.0,0.0,0.0,1.9040654961e-05,0.0,0.0,0.0,4.41476573398e-05,0.0278584510088,0.00734585477039,0.00608501955867,0.01,0.0,0.0,0.0,0.01,0.0,0.0,0.0,0.01,0.0713078528643,9.48681259155,2.52559423447,0.01,0.0,0.0,0.0,0.01,0.0,0.0,0.0,0.01
1585289625633261888,8537,1585289625632481943,waist_imu_link,-0.49742269516,0.617969691753,-0.469036906958,0.388186186552,2.13129690406e-05,0.0,0.0,0.0,1.91407835762e-05,0.0,0.0,0.0,4.41545127365e-05,0.018008498475,0.00494118314236,0.00387156754732,0.01,0.0,0.0,0.0,0.01,0.0,0.0,0.0,0.01,0.0690733194351,9.45980262756,2.47585892677,0.01,0.0,0.0,0.0,0.01,0.0,0.0,0.0,0.01
1585289625658450992,8538,1585289625657305329,waist_imu_link,-0.497260183096,0.61792999506,-0.469222515821,0.388233393431,2.1439036006e-05,0.0,0.0,0.0,1.92419138839e-05,0.0,0.0,0.0,4.41786508848e-05,0.0209352001548,0.0118214040995,0.00905562192202,0.01,0.0,0.0,0.0,0.01,0.0,0.0,0.0,0.01,0.0570318587124,9.48953056335,2.49202752113,0.01,0.0,0.0,0.0,0.01,0.0,0.0,0.0,0.01
1585289625683343834,8539,1585289625682302328,waist_imu_link,-0.497060924768,0.617988824844,-0.469320863485,0.388276040554,2.15628009074e-05,0.0,0.0,0.0,1.93397546578e-05,0.0,0.0,0.0,4.41954419334e-05,0.00538895279169,0.00684995576739,0.0107230562717,0.01,0.0,0.0,0.0,0.01,0.0,0.0,0.0,0.01,0.0462023019791,9.47390270233,2.44999599457,0.01,0.0,0.0,0.0,0.01,0.0,0.0,0.0,0.01
1585289625707170444,8540,1585289625706866200,waist_imu_link,-0.496936351061,0.618052005768,-0.469364523888,0.38828215003,2.16842860947e-05,0.0,0.0,0.0,1.94329608259e-05,0.0,0.0,0.0,4.4196754496e-05,0.00112280831672,0.00519642233849,0.00770294107497,0.01,0.0,0.0,0.0,0.01,0.0,0.0,0.0,0.01,0.0684021785855,9.4985294342,2.48114800453,0.01,0.0,0.0,0.0,0.01,0.0,0.0,0.0,0.01
1585289625732157489,8541,1585289625731871395,waist_imu_link,-0.496826440096,0.618144452572,-0.469389647245,0.388245224953,2.18030018968e-05,0.0,0.0,0.0,1.95235479643e-05,0.0,0.0,0.0,4.41979857854e-05,-0.000641902326606,0.0111498385668,0.0073690675199,0.01,0.0,0.0,0.0,0.01,0.0,0.0,0.0,0.01,0.0922167152166,9.52559757233,2.53574991226,0.01,0.0,0.0,0.0,0.01,0.0,0.0,0.0,0.01
1585289625757904809,8542,1585289625757146010,waist_imu_link,-0.496635466814,0.618218481541,-0.469518333673,0.388215988874,2.19186821439e-05,0.0,0.0,0.0,1.9612355219e-05,0.0,0.0,0.0,4.42042072509e-05,0.013359323144,0.0158313587308,0.00765097886324,0.01,0.0,0.0,0.0,0.01,0.0,0.0,0.0,0.01,0.0707087814808,9.55728149414,2.56907987595,0.01,0.0,0.0,0.0,0.01,0.0,0.0,0.0,0.01
1585289625782845338,8543,1585289625782124948,waist_imu_link,-0.496361494064,0.618246734142,-0.469744324684,0.388248085976,2.20312028944e-05,0.0,0.0,0.0,1.97001790677e-05,0.0,0.0,0.0,4.42209576629e-05,0.0209250096232,0.0182703565806,0.00927331112325,0.01,0.0,0.0,0.0,0.01,0.0,0.0,0.0,0.01,0.102697096765,9.46510601044,2.50537490845,0.01,0.0,0.0,0.0,0.01,0.0,0.0,0.0,0.01
1585289625807542310,8544,1585289625806954550,waist_imu_link,-0.496084868908,0.618323922157,-0.469952344894,0.388226956129,2.21401902913e-05,0.0,0.0,0.0,1.97832829738e-05,0.0,0.0,0.0,4.42278902692e-05,0.0116682704538,0.0208501964808,0.0105082821101,0.01,0.0,0.0,0.0,0.01,0.0,0.0,0.0,0.01,0.0578134283423,9.49167060852,2.47362661362,0.01,0.0,0.0,0.0,0.01,0.0,0.0,0.0,0.01
1585289625832509849,8545,1585289625831899998,waist_imu_link,-0.495776385069,0.618449747562,-0.470134198666,0.388200372458,2.22460527326e-05,0.0,0.0,0.0,1.98628799401e-05,0.0,0.0,0.0,4.42303894209e-05,0.0156658291817,0.0232556015253,0.0162813663483,0.01,0.0,0.0,0.0,0.01,0.0,0.0,0.0,0.01,0.0924441069365,9.5183467865,2.53355646133,0.01,0.0,0.0,0.0,0.01,0.0,0.0,0.0,0.01
1585289625857574896,8546,1585289625856884160,waist_imu_link,-0.495326757431,0.618608057499,-0.470390021801,0.388212323189,2.23477438256e-05,0.0,0.0,0.0,1.99383929268e-05,0.0,0.0,0.0,4.42296173252e-05,0.0238055307418,0.0306328609586,0.0218123905361,0.01,0.0,0.0,0.0,0.01,0.0,0.0,0.0,0.01,0.125890120864,9.51643371582,2.52543926239,0.01,0.0,0.0,0.0,0.01,0.0,0.0,0.0,0.01
1585289625882633637,8547,1585289625881936492,waist_imu_link,-0.494872063398,0.618740081787,-0.470654129982,0.388261735439,2.24433556812e-05,0.0,0.0,0.0,2.00085093712e-05,0.0,0.0,0.0,4.42270003273e-05,0.0193892046809,0.0269420444965,0.0169352162629,0.01,0.0,0.0,0.0,0.01,0.0,0.0,0.0,0.01,0.207831442356,9.48889446259,2.44144201279,0.01,0.0,0.0,0.0,0.01,0.0,0.0,0.0,0.01
1585289625907509191,8548,1585289625906922232,waist_imu_link,-0.494513303041,0.618952572346,-0.470803171396,0.388199359179,2.25336258541e-05,0.0,0.0,0.0,2.00734690294e-05,0.0,0.0,0.0,4.4220153058e-05,0.0021229092963,0.0342491269112,0.0202468372881,0.01,0.0,0.0,0.0,0.01,0.0,0.0,0.0,0.01,0.251150101423,9.34903717041,2.52147769928,0.01,0.0,0.0,0.0,0.01,0.0,0.0,0.0,0.01
1585289625932612167,8549,1585289625932000636,waist_imu_link,-0.49413472414,0.619257330894,-0.470875948668,0.388107001781,2.26343315092e-05,0.0,0.0,0.0,2.01474926843e-05,0.0,0.0,0.0,4.42190274238e-05,-0.00503853708506,0.0263214558363,0.0245340559632,0.01,0.0,0.0,0.0,0.01,0.0,0.0,0.0,0.01,0.243771597743,9.44378089905,2.38842105865,0.01,0.0,0.0,0.0,0.01,0.0,0.0,0.0,0.01
1585289625957553196,8550,1585289625956910069,waist_imu_link,-0.494018524885,0.619677782059,-0.470672786236,0.387830227613,2.27412972346e-05,0.0,0.0,0.0,2.02250882974e-05,0.0,0.0,0.0,4.42111804938e-05,-0.05595497787,0.0213672406971,0.0111091788858,0.01,0.0,0.0,0.0,0.01,0.0,0.0,0.0,0.01,0.393686711788,9.4733839035,2.38977575302,0.01,0.0,0.0,0.0,0.01,0.0,0.0,0.0,0.01
1585289625982487392,8551,1585289625981857820,waist_imu_link,-0.494141072035,0.620175004005,-0.47030133009,0.387329608202,2.28649280351e-05,0.0,0.0,0.0,2.03150354091e-05,0.0,0.0,0.0,4.4200342709e-05,-0.0561967715621,0.0137553075328,-0.000898290425539,0.01,0.0,0.0,0.0,0.01,0.0,0.0,0.0,0.01,0.385144114494,9.40332889557,2.67089176178,0.01,0.0,0.0,0.0,0.01,0.0,0.0,0.0,0.01
1585289626007352979,8552,1585289626006739430,waist_imu_link,-0.494419902563,0.620348930359,-0.470029741526,0.38702493906,2.30018429445e-05,0.0,0.0,0.0,2.04174457702e-05,0.0,0.0,0.0,4.42020372558e-05,-0.0411264672875,-0.00327867711894,-0.0152239128947,0.01,0.0,0.0,0.0,0.01,0.0,0.0,0.0,0.01,0.403663754463,9.5194272995,2.59818124771,0.01,0.0,0.0,0.0,0.01,0.0,0.0,0.0,0.01
1585289626032458399,8553,1585289626031808303,waist_imu_link,-0.494783222675,0.620338499546,-0.469810515642,0.386843472719,2.31426467778e-05,0.0,0.0,0.0,2.05216543013e-05,0.0,0.0,0.0,4.41990057644e-05,-0.0157733317465,-0.018746079877,-0.0157955773175,0.01,0.0,0.0,0.0,0.01,0.0,0.0,0.0,0.01,0.465855240822,9.4717502594,2.66194939613,0.01,0.0,0.0,0.0,0.01,0.0,0.0,0.0,0.01
1585289626057523420,8554,1585289626056871928,waist_imu_link,-0.495109319687,0.620422840118,-0.469427883625,0.386755436659,2.32888288669e-05,0.0,0.0,0.0,2.06282400744e-05,0.0,0.0,0.0,4.41880541971e-05,-0.0488688126206,-0.0238601751626,-0.00108827278018,0.01,0.0,0.0,0.0,0.01,0.0,0.0,0.0,0.01,0.413870722055,9.52279663086,2.64192891121,0.01,0.0,0.0,0.0,0.01,0.0,0.0,0.0,0.01
