%time,field.header.seq,field.header.stamp,field.header.frame_id,field.orientation.x,field.orientation.y,field.orientation.z,field.orientation.w,field.orientation_covariance0,field.orientation_covariance1,field.orientation_covariance2,field.orientation_covariance3,field.orientation_covariance4,field.orientation_covariance5,field.orientation_covariance6,field.orientation_covariance7,field.orientation_covariance8,field.angular_velocity.x,field.angular_velocity.y,field.angular_velocity.z,field.angular_velocity_covariance0,field.angular_velocity_covariance1,field.angular_velocity_covariance2,field.angular_velocity_covariance3,field.angular_velocity_covariance4,field.angular_velocity_covariance5,field.angular_velocity_covariance6,field.angular_velocity_covariance7,field.angular_velocity_covariance8,field.linear_acceleration.x,field.linear_acceleration.y,field.linear_acceleration.z,field.linear_acceleration_covariance0,field.linear_acceleration_covariance1,field.linear_acceleration_covariance2,field.linear_acceleration_covariance3,field.linear_acceleration_covariance4,field.linear_acceleration_covariance5,field.linear_acceleration_covariance6,field.linear_acceleration_covariance7,field.linear_acceleration_covariance8
1585296390785802402,8429,1585296390785280673,foot_imu_link,-0.0933585762978,-0.209161147475,-0.471061050892,0.851843476295,0.0,0.0,0.0,0.0,0.0,0.0,0.0,0.0,0.0,-0.00244011636823,0.00151179975364,0.00311576202512,0.01,0.0,0.0,0.0,0.01,0.0,0.0,0.0,0.01,-4.31222724915,-0.329839110374,-8.63906764984,0.01,0.0,0.0,0.0,0.01,0.0,0.0,0.0,0.01
1585296390787305989,8430,1585296390786810659,foot_imu_link,-0.0933689698577,-0.20915953815,-0.471055328846,0.851845860481,0.0,0.0,0.0,0.0,0.0,0.0,0.0,0.0,0.0,-0.00295469909906,-0.00150231667794,0.00355571787804,0.01,0.0,0.0,0.0,0.01,0.0,0.0,0.0,0.01,-4.2579369545,-0.36949250102,-8.62223434448,0.01,0.0,0.0,0.0,0.01,0.0,0.0,0.0,0.01
1585296390794620910,8431,1585296390794133413,foot_imu_link,-0.0933751314878,-0.209160357714,-0.471048057079,0.851849079132,0.0,0.0,0.0,0.0,0.0,0.0,0.0,0.0,0.0,-0.0015370612964,-0.00163727393374,0.0035428176634,0.01,0.0,0.0,0.0,0.01,0.0,0.0,0.0,0.01,-4.28381490707,-0.384387910366,-8.61745834351,0.01,0.0,0.0,0.0,0.01,0.0,0.0,0.0,0.01
1585296390796880058,8432,1585296390796379341,foot_imu_link,-0.0933809280396,-0.209153965116,-0.471043497324,0.851852476597,0.0,0.0,0.0,0.0,0.0,0.0,0.0,0.0,0.0,-0.00285191368312,0.00133621250279,0.00276183243841,0.01,0.0,0.0,0.0,0.01,0.0,0.0,0.0,0.01,-4.27787590027,-0.373696357012,-8.6251707077,0.01,0.0,0.0,0.0,0.01,0.0,0.0,0.0,0.01
1585296390806516653,8433,1585296390804678719,foot_imu_link,-0.0933862403035,-0.209149926901,-0.471038907766,0.851855397224,0.0,0.0,0.0,0.0,0.0,0.0,0.0,0.0,0.0,-0.00181955564767,0.000324321852531,0.0032296278514,0.01,0.0,0.0,0.0,0.01,0.0,0.0,0.0,0.01,-4.26622772217,-0.357494115829,-8.59587574005,0.01,0.0,0.0,0.0,0.01,0.0,0.0,0.0,0.01
1585296390807501477,8434,1585296390807305172,foot_imu_link,-0.093392573297,-0.209142774343,-0.471038341522,0.851856827736,0.0,0.0,0.0,0.0,0.0,0.0,0.0,0.0,0.0,-0.00300909020007,0.00145299045835,0.00169007852674,0.01,0.0,0.0,0.0,0.01,0.0,0.0,0.0,0.01,-4.29236268997,-0.371358215809,-8.62944412231,0.01,0.0,0.0,0.0,0.01,0.0,0.0,0.0,0.01
1585296390816070560,8435,1585296390815851819,foot_imu_link,-0.0933973416686,-0.209132224321,-0.471037685871,0.851859271526,0.0,0.0,0.0,0.0,0.0,0.0,0.0,0.0,0.0,-0.00212041661143,0.00236670183949,0.000723126810044,0.01,0.0,0.0,0.0,0.01,0.0,0.0,0.0,0.01,-4.28197717667,-0.367954194546,-8.64229774475,0.01,0.0,0.0,0.0,0.01,0.0,0.0,0.0,0.01
1585296390853160281,8436,1585296390852999236,foot_imu_link,-0.0934369340539,-0.209068253636,-0.471018761396,0.851881086826,0.0,0.0,0.0,0.0,0.0,0.0,0.0,0.0,0.0,-0.00383240450174,0.00269420864061,0.00221869908273,0.01,0.0,0.0,0.0,0.01,0.0,0.0,0.0,0.01,-4.28544950485,-0.367711812258,-8.56736564636,0.01,0.0,0.0,0.0,0.01,0.0,0.0,0.0,0.01
1585296390868747347,8437,1585296390868337264,foot_imu_link,-0.0934533923864,-0.209041267633,-0.471011191607,0.851890087128,0.0,0.0,0.0,0.0,0.0,0.0,0.0,0.0,0.0,-0.00356587953866,0.000706188788172,0.00174420466647,0.01,0.0,0.0,0.0,0.01,0.0,0.0,0.0,0.01,-4.29825210571,-0.349064707756,-8.62461853027,0.01,0.0,0.0,0.0,0.01,0.0,0.0,0.0,0.01
1585296390885885571,8438,1585296390885310181,foot_imu_link,-0.0934634506702,-0.209028318524,-0.4710034132,0.851896464825,0.0,0.0,0.0,0.0,0.0,0.0,0.0,0.0,0.0,-0.00118206255138,0.000375602568965,0.00168525613844,0.01,0.0,0.0,0.0,0.01,0.0,0.0,0.0,0.01,-4.29121494293,-0.36446210742,-8.6485710144,0.01,0.0,0.0,0.0,0.01,0.0,0.0,0.0,0.01
1585296390901703949,8439,1585296390901086656,foot_imu_link,-0.0934727415442,-0.209023311734,-0.470985889435,0.8519064188,0.0,0.0,0.0,0.0,0.0,0.0,0.0,0.0,0.0,9.76901501417e-05,0.000949611479882,0.00160142267123,0.01,0.0,0.0,0.0,0.01,0.0,0.0,0.0,0.01,-4.28120613098,-0.343794375658,-8.62581253052,0.01,0.0,0.0,0.0,0.01,0.0,0.0,0.0,0.01
1585296390917576804,8440,1585296390916429361,foot_imu_link,-0.0934714004397,-0.209011107683,-0.470978915691,0.851913392544,0.0,0.0,0.0,0.0,0.0,0.0,0.0,0.0,0.0,-0.000886302441359,0.00237947702408,0.00103425420821,0.01,0.0,0.0,0.0,0.01,0.0,0.0,0.0,0.01,-4.26796913147,-0.36263641715,-8.62278366089,0.01,0.0,0.0,0.0,0.01,0.0,0.0,0.0,0.01
1585296390931999673,8441,1585296390931241203,foot_imu_link,-0.0934712141752,-0.209001943469,-0.470966517925,0.851922512054,0.0,0.0,0.0,0.0,0.0,0.0,0.0,0.0,0.0,0.000560971908271,0.000846566108521,0.00177241349593,0.01,0.0,0.0,0.0,0.01,0.0,0.0,0.0,0.01,-4.28418588638,-0.34078630805,-8.62254810333,0.01,0.0,0.0,0.0,0.01,0.0,0.0,0.0,0.01
1585296390954390733,8442,1585296390953093513,foot_imu_link,-0.0934624746442,-0.208986148238,-0.470947951078,0.85193759203,0.0,0.0,0.0,0.0,0.0,0.0,0.0,0.0,0.0,0.00144999381155,0.00185816222802,0.00216453429312,0.01,0.0,0.0,0.0,0.01,0.0,0.0,0.0,0.01,-4.28382825851,-0.382151007652,-8.64499092102,0.01,0.0,0.0,0.0,0.01,0.0,0.0,0.0,0.01
1585296390968975780,8443,1585296390968106727,foot_imu_link,-0.0934592038393,-0.20897552371,-0.470937311649,0.851946473122,0.0,0.0,0.0,0.0,0.0,0.0,0.0,0.0,0.0,-0.000165602192283,0.0016918038018,0.00122741470113,0.01,0.0,0.0,0.0,0.01,0.0,0.0,0.0,0.01,-4.28152179718,-0.344117164612,-8.63146400452,0.01,0.0,0.0,0.0,0.01,0.0,0.0,0.0,0.01
1585296390985747687,8444,1585296390985033778,foot_imu_link,-0.0934445038438,-0.208970397711,-0.470935821533,0.851950109005,0.0,0.0,0.0,0.0,0.0,0.0,0.0,0.0,0.0,0.00268985889852,0.000618352845777,0.000457695219666,0.01,0.0,0.0,0.0,0.01,0.0,0.0,0.0,0.01,-4.26772451401,-0.38106405735,-8.60111427307,0.01,0.0,0.0,0.0,0.01,0.0,0.0,0.0,0.01
1585296391016559578,8445,1585296391015984231,foot_imu_link,-0.0933952108026,-0.209000736475,-0.470928311348,0.851952254772,0.0,0.0,0.0,0.0,0.0,0.0,0.0,0.0,0.0,0.0042145838961,-0.000672410882544,-0.000912718009204,0.01,0.0,0.0,0.0,0.01,0.0,0.0,0.0,0.01,-4.28580284119,-0.358200490475,-8.61434173584,0.01,0.0,0.0,0.0,0.01,0.0,0.0,0.0,0.01
1585296391031354941,8446,1585296391030829577,foot_imu_link,-0.0933727920055,-0.209023848176,-0.470929801464,0.851948201656,0.0,0.0,0.0,0.0,0.0,0.0,0.0,0.0,0.0,0.00321074249223,-0.00162392412312,-0.000742397736758,0.01,0.0,0.0,0.0,0.01,0.0,0.0,0.0,0.01,-4.29692411423,-0.384012550116,-8.64213371277,0.01,0.0,0.0,0.0,0.01,0.0,0.0,0.0,0.01
1585296391068405056,8447,1585296391068047565,foot_imu_link,-0.0933229625225,-0.209026858211,-0.470925301313,0.851955413818,0.0,0.0,0.0,0.0,0.0,0.0,0.0,0.0,0.0,0.00263501750305,0.00165437348187,0.001358225476,0.01,0.0,0.0,0.0,0.01,0.0,0.0,0.0,0.01,-4.26664352417,-0.371001839638,-8.61818504333,0.01,0.0,0.0,0.0,0.01,0.0,0.0,0.0,0.01
1585296391083603906,8448,1585296391083245654,foot_imu_link,-0.093311086297,-0.209023207426,-0.470923393965,0.851958632469,0.0,0.0,0.0,0.0,0.0,0.0,0.0,0.0,0.0,0.000311055220664,0.00136122957338,0.000735848210752,0.01,0.0,0.0,0.0,0.01,0.0,0.0,0.0,0.01,-4.28731393814,-0.370656549931,-8.6231174469,0.01,0.0,0.0,0.0,0.01,0.0,0.0,0.0,0.01
1585296391100244587,8449,1585296391099872319,foot_imu_link,-0.0933055579662,-0.209016337991,-0.470916837454,0.851964592934,0.0,0.0,0.0,0.0,0.0,0.0,0.0,0.0,0.0,0.000794740393758,0.00196358002722,-6.00726343691e-05,0.01,0.0,0.0,0.0,0.01,0.0,0.0,0.0,0.01,-4.29630756378,-0.333756506443,-8.62012004852,0.01,0.0,0.0,0.0,0.01,0.0,0.0,0.0,0.01
1585296391116501660,8450,1585296391115915502,foot_imu_link,-0.0933112278581,-0.209009245038,-0.470912903547,0.851967871189,0.0,0.0,0.0,0.0,0.0,0.0,0.0,0.0,0.0,0.000867179594934,-0.000164244265761,0.000266714487225,0.01,0.0,0.0,0.0,0.01,0.0,0.0,0.0,0.01,-4.26089859009,-0.262098819017,-8.63921165466,0.01,0.0,0.0,0.0,0.01,0.0,0.0,0.0,0.01
1585296391131515327,8451,1585296391131031669,foot_imu_link,-0.0933034271002,-0.209015756845,-0.470910817385,0.851968228817,0.0,0.0,0.0,0.0,0.0,0.0,0.0,0.0,0.0,-0.00164900626987,1.83401862159e-05,-0.000843246933073,0.01,0.0,0.0,0.0,0.01,0.0,0.0,0.0,0.01,-4.34235572815,-0.372567653656,-8.63350391388,0.01,0.0,0.0,0.0,0.01,0.0,0.0,0.0,0.01
1585296391146887195,8452,1585296391146208588,foot_imu_link,-0.09330701828,-0.209011629224,-0.470904052258,0.851972639561,0.0,0.0,0.0,0.0,0.0,0.0,0.0,0.0,0.0,-0.000123819336295,-3.8027705159e-05,-0.000198421534151,0.01,0.0,0.0,0.0,0.01,0.0,0.0,0.0,0.01,-4.31519126892,-0.437649428844,-8.64685821533,0.01,0.0,0.0,0.0,0.01,0.0,0.0,0.0,0.01
1585296391169658172,8453,1585296391167994901,foot_imu_link,-0.0933101773262,-0.209004744887,-0.470897436142,0.851977646351,0.0,0.0,0.0,0.0,0.0,0.0,0.0,0.0,0.0,-0.00122230034322,5.97831094638e-05,0.000316376332194,0.01,0.0,0.0,0.0,0.01,0.0,0.0,0.0,0.01,-4.31068134308,-0.390528559685,-8.64354038239,0.01,0.0,0.0,0.0,0.01,0.0,0.0,0.0,0.01
1585296391184333010,8454,1585296391183076968,foot_imu_link,-0.0933140143752,-0.208988115191,-0.470888495445,0.851986289024,0.0,0.0,0.0,0.0,0.0,0.0,0.0,0.0,0.0,-0.00103365909308,0.0016024117358,0.00179392658174,0.01,0.0,0.0,0.0,0.01,0.0,0.0,0.0,0.01,-4.25657510757,-0.358493804932,-8.62082386017,0.01,0.0,0.0,0.0,0.01,0.0,0.0,0.0,0.01
1585296391198930502,8455,1585296391198357324,foot_imu_link,-0.0933108702302,-0.208979740739,-0.470882415771,0.851991891861,0.0,0.0,0.0,0.0,0.0,0.0,0.0,0.0,0.0,6.92056491971e-05,-0.00047935245675,0.000929418951273,0.01,0.0,0.0,0.0,0.01,0.0,0.0,0.0,0.01,-4.2873506546,-0.363269269466,-8.6465215683,0.01,0.0,0.0,0.0,0.01,0.0,0.0,0.0,0.01
1585296391207385002,8456,1585296391206831926,foot_imu_link,-0.0933157280087,-0.208965361118,-0.470884293318,0.851993918419,0.0,0.0,0.0,0.0,0.0,0.0,0.0,0.0,0.0,-0.00131045747548,0.000898297934327,0.000517617445439,0.01,0.0,0.0,0.0,0.01,0.0,0.0,0.0,0.01,-4.25369930267,-0.370743095875,-8.65385818481,0.01,0.0,0.0,0.0,0.01,0.0,0.0,0.0,0.01
1585296391231344983,8457,1585296391230801092,foot_imu_link,-0.0932858362794,-0.2089689821,-0.470771849155,0.852058470249,0.0,0.0,0.0,0.0,0.0,0.0,0.0,0.0,0.0,0.000659857876599,0.00217584567145,-0.00108134653419,0.01,0.0,0.0,0.0,0.01,0.0,0.0,0.0,0.01,-4.28393030167,-0.384366363287,-8.60397720337,0.01,0.0,0.0,0.0,0.01,0.0,0.0,0.0,0.01
1585296391246595167,8458,1585296391245911380,foot_imu_link,-0.0932704880834,-0.208963036537,-0.470754355192,0.852071285248,0.0,0.0,0.0,0.0,0.0,0.0,0.0,0.0,0.0,-0.000583902932703,0.00127679947764,0.000355069059879,0.01,0.0,0.0,0.0,0.01,0.0,0.0,0.0,0.01,-4.29058694839,-0.350284814835,-8.64489269257,0.01,0.0,0.0,0.0,0.01,0.0,0.0,0.0,0.01
1585296391284540648,8459,1585296391283305288,foot_imu_link,-0.0933083668351,-0.208927065134,-0.470924109221,0.851982116699,0.0,0.0,0.0,0.0,0.0,0.0,0.0,0.0,0.0,-0.000133986584842,0.00193413114175,0.00116469571367,0.01,0.0,0.0,0.0,0.01,0.0,0.0,0.0,0.01,-4.33218193054,-0.324146032333,-8.63678646088,0.01,0.0,0.0,0.0,0.01,0.0,0.0,0.0,0.01
1585296391298863306,8460,1585296391298232744,foot_imu_link,-0.0932903066278,-0.208937451243,-0.470849424601,0.852022826672,0.0,0.0,0.0,0.0,0.0,0.0,0.0,0.0,0.0,0.000991099514067,-0.00184046314098,-5.65876252949e-05,0.01,0.0,0.0,0.0,0.01,0.0,0.0,0.0,0.01,-4.27607297897,-0.394458532333,-8.61202144623,0.01,0.0,0.0,0.0,0.01,0.0,0.0,0.0,0.01
1585296391315618296,8461,1585296391314941170,foot_imu_link,-0.0932696536183,-0.208954721689,-0.470829218626,0.852031946182,0.0,0.0,0.0,0.0,0.0,0.0,0.0,0.0,0.0,0.00150965433568,0.00118097290397,-0.00142919830978,0.01,0.0,0.0,0.0,0.01,0.0,0.0,0.0,0.01,-4.28444576263,-0.392031162977,-8.63464832306,0.01,0.0,0.0,0.0,0.01,0.0,0.0,0.0,0.01
1585296391331539948,8462,1585296391330910875,foot_imu_link,-0.0932561457157,-0.208950206637,-0.470865309238,0.852014660835,0.0,0.0,0.0,0.0,0.0,0.0,0.0,0.0,0.0,0.00109604932368,0.000746799225453,0.000328371301293,0.01,0.0,0.0,0.0,0.01,0.0,0.0,0.0,0.01,-4.28832435608,-0.368002474308,-8.65825462341,0.01,0.0,0.0,0.0,0.01,0.0,0.0,0.0,0.01
1585296391346755915,8463,1585296391345986308,foot_imu_link,-0.0932328924537,-0.208951175213,-0.470820814371,0.852041602135,0.0,0.0,0.0,0.0,0.0,0.0,0.0,0.0,0.0,0.00121603999287,0.00131599535234,0.00140619045123,0.01,0.0,0.0,0.0,0.01,0.0,0.0,0.0,0.01,-4.24083375931,-0.375067025423,-8.63417053223,0.01,0.0,0.0,0.0,0.01,0.0,0.0,0.0,0.01
1585296391361773406,8464,1585296391361109821,foot_imu_link,-0.0932658314705,-0.208941146731,-0.47093307972,0.851978361607,0.0,0.0,0.0,0.0,0.0,0.0,0.0,0.0,0.0,0.000480522401631,0.00128531432711,0.00136357592419,0.01,0.0,0.0,0.0,0.01,0.0,0.0,0.0,0.01,-4.28128528595,-0.3371976614,-8.58585453033,0.01,0.0,0.0,0.0,0.01,0.0,0.0,0.0,0.01
1585296391384503792,8465,1585296391382877137,foot_imu_link,-0.0932720080018,-0.208935663104,-0.470989614725,0.851947784424,0.0,0.0,0.0,0.0,0.0,0.0,0.0,0.0,0.0,0.00169574934989,0.000465631484985,0.00198892876506,0.01,0.0,0.0,0.0,0.01,0.0,0.0,0.0,0.01,-4.27391242981,-0.351819217205,-8.61822032928,0.01,0.0,0.0,0.0,0.01,0.0,0.0,0.0,0.01
1585296391399235107,8466,1585296391398068377,foot_imu_link,-0.0932893306017,-0.208915218711,-0.471070438623,0.851906180382,0.0,0.0,0.0,0.0,0.0,0.0,0.0,0.0,0.0,0.000601019710302,0.00186026678421,0.00180114526302,0.01,0.0,0.0,0.0,0.01,0.0,0.0,0.0,0.01,-4.24541902542,-0.373258709908,-8.61670207977,0.01,0.0,0.0,0.0,0.01,0.0,0.0,0.0,0.01
1585296391414289223,8467,1585296391413261003,foot_imu_link,-0.0932735577226,-0.208908334374,-0.471039652824,0.85192668438,0.0,0.0,0.0,0.0,0.0,0.0,0.0,0.0,0.0,0.000939953140914,0.00136946188286,0.00305820629001,0.01,0.0,0.0,0.0,0.01,0.0,0.0,0.0,0.01,-4.27604532242,-0.358752310276,-8.61467933655,0.01,0.0,0.0,0.0,0.01,0.0,0.0,0.0,0.01
1585296391430556721,8468,1585296391429922740,foot_imu_link,-0.0932682901621,-0.208897858858,-0.471038281918,0.851930618286,0.0,0.0,0.0,0.0,0.0,0.0,0.0,0.0,0.0,9.86335799098e-05,-0.000309627212118,0.00324753811583,0.01,0.0,0.0,0.0,0.01,0.0,0.0,0.0,0.01,-4.27555274963,-0.352277219296,-8.64493751526,0.01,0.0,0.0,0.0,0.01,0.0,0.0,0.0,0.01
1585296391437966869,8469,1585296391437263619,foot_imu_link,-0.0932957082987,-0.208882451057,-0.471113085747,0.851890027523,0.0,0.0,0.0,0.0,0.0,0.0,0.0,0.0,0.0,0.000932366587222,-0.000541411864106,0.00273549696431,0.01,0.0,0.0,0.0,0.01,0.0,0.0,0.0,0.01,-4.29327964783,-0.372540682554,-8.63070869446,0.01,0.0,0.0,0.0,0.01,0.0,0.0,0.0,0.01
1585296391461830182,8470,1585296391461002665,foot_imu_link,-0.0932914838195,-0.208886444569,-0.471110403538,0.851890921593,0.0,0.0,0.0,0.0,0.0,0.0,0.0,0.0,0.0,-0.000157308764756,0.000418061390519,0.00283752242103,0.01,0.0,0.0,0.0,0.01,0.0,0.0,0.0,0.01,-4.30086994171,-0.380758881569,-8.65256500244,0.01,0.0,0.0,0.0,0.01,0.0,0.0,0.0,0.01
1585296391499289610,8471,1585296391497955375,foot_imu_link,-0.0932880043983,-0.208903387189,-0.471016615629,0.851939082146,0.0,0.0,0.0,0.0,0.0,0.0,0.0,0.0,0.0,-0.000757799483836,0.000586852722336,0.00229602260515,0.01,0.0,0.0,0.0,0.01,0.0,0.0,0.0,0.01,-4.28470420837,-0.3823967278,-8.61412620544,0.01,0.0,0.0,0.0,0.01,0.0,0.0,0.0,0.01
1585296391515394340,8472,1585296391513261345,foot_imu_link,-0.0932897105813,-0.208902671933,-0.470968782902,0.851965487003,0.0,0.0,0.0,0.0,0.0,0.0,0.0,0.0,0.0,-0.000228495337069,0.000906307715923,0.00328157842159,0.01,0.0,0.0,0.0,0.01,0.0,0.0,0.0,0.01,-4.28212833405,-0.350460201502,-8.62598228455,0.01,0.0,0.0,0.0,0.01,0.0,0.0,0.0,0.01
1585296391523173678,8473,1585296391521777675,foot_imu_link,-0.093290194869,-0.208896517754,-0.470975935459,0.851962983608,0.0,0.0,0.0,0.0,0.0,0.0,0.0,0.0,0.0,-0.000245637260377,0.00138518610038,0.00186849525198,0.01,0.0,0.0,0.0,0.01,0.0,0.0,0.0,0.01,-4.29114055634,-0.378151684999,-8.64358615875,0.01,0.0,0.0,0.0,0.01,0.0,0.0,0.0,0.01
1585296391546462739,8474,1585296391545510613,foot_imu_link,-0.0932912379503,-0.208894893527,-0.470947146416,0.851979136467,0.0,0.0,0.0,0.0,0.0,0.0,0.0,0.0,0.0,0.00171974487603,-0.000956402800512,0.000698616728187,0.01,0.0,0.0,0.0,0.01,0.0,0.0,0.0,0.01,-4.29254293442,-0.371944457293,-8.63925457001,0.01,0.0,0.0,0.0,0.01,0.0,0.0,0.0,0.01
1585296391561392534,8475,1585296391560785880,foot_imu_link,-0.0932855159044,-0.208898633718,-0.47092205286,0.851992726326,0.0,0.0,0.0,0.0,0.0,0.0,0.0,0.0,0.0,-0.000113930553198,-0.000961863668635,0.000510660000145,0.01,0.0,0.0,0.0,0.01,0.0,0.0,0.0,0.01,-4.30174255371,-0.368122309446,-8.65708732605,0.01,0.0,0.0,0.0,0.01,0.0,0.0,0.0,0.01
1585296391576297185,8476,1585296391575733278,foot_imu_link,-0.0932732447982,-0.2088996768,-0.470922499895,0.851993620396,0.0,0.0,0.0,0.0,0.0,0.0,0.0,0.0,0.0,0.00041392724961,0.00085218611639,-0.000407587736845,0.01,0.0,0.0,0.0,0.01,0.0,0.0,0.0,0.01,-4.29510402679,-0.372443199158,-8.61566829681,0.01,0.0,0.0,0.0,0.01,0.0,0.0,0.0,0.01
1585296391598981000,8477,1585296391597830261,foot_imu_link,-0.0932524502277,-0.208897188306,-0.470917671919,0.851999163628,0.0,0.0,0.0,0.0,0.0,0.0,0.0,0.0,0.0,-0.000378387048841,0.00134405470453,6.3621904701e-05,0.01,0.0,0.0,0.0,0.01,0.0,0.0,0.0,0.01,-4.31269598007,-0.400684535503,-8.64123535156,0.01,0.0,0.0,0.0,0.01,0.0,0.0,0.0,0.01
1585296391614258726,8478,1585296391612824371,foot_imu_link,-0.0932566300035,-0.208893492818,-0.470899760723,0.852009534836,0.0,0.0,0.0,0.0,0.0,0.0,0.0,0.0,0.0,-0.000390164554119,-0.00181877566501,0.00196983991191,0.01,0.0,0.0,0.0,0.01,0.0,0.0,0.0,0.01,-4.21649980545,-0.433884739876,-8.60143947601,0.01,0.0,0.0,0.0,0.01,0.0,0.0,0.0,0.01
1585296391629192685,8479,1585296391628233880,foot_imu_link,-0.0932614058256,-0.208892941475,-0.470870912075,0.852025091648,0.0,0.0,0.0,0.0,0.0,0.0,0.0,0.0,0.0,-0.000358320772648,-0.000297400314594,0.00239580497146,0.01,0.0,0.0,0.0,0.01,0.0,0.0,0.0,0.01,-4.23090553284,-0.360436022282,-8.60041618347,0.01,0.0,0.0,0.0,0.01,0.0,0.0,0.0,0.01
1585296391645585086,8480,1585296391644983373,foot_imu_link,-0.0932823866606,-0.208884775639,-0.470927089453,0.851993739605,0.0,0.0,0.0,0.0,0.0,0.0,0.0,0.0,0.0,-0.00126833561808,0.000120482116472,0.00269419839606,0.01,0.0,0.0,0.0,0.01,0.0,0.0,0.0,0.01,-4.26150083542,-0.391632795334,-8.60653305054,0.01,0.0,0.0,0.0,0.01,0.0,0.0,0.0,0.01
1585296391661235534,8481,1585296391660580929,foot_imu_link,-0.0932833775878,-0.208897590637,-0.470919460058,0.851994693279,0.0,0.0,0.0,0.0,0.0,0.0,0.0,0.0,0.0,0.000111569650471,-0.000941622594837,0.00102194445208,0.01,0.0,0.0,0.0,0.01,0.0,0.0,0.0,0.01,-4.31429672241,-0.311388999224,-8.64517211914,0.01,0.0,0.0,0.0,0.01,0.0,0.0,0.0,0.01
1585296391676502995,8482,1585296391675900008,foot_imu_link,-0.0933011248708,-0.208903118968,-0.470932513475,0.851984143257,0.0,0.0,0.0,0.0,0.0,0.0,0.0,0.0,0.0,0.00158097408712,-0.00106261321343,0.00173839414492,0.01,0.0,0.0,0.0,0.01,0.0,0.0,0.0,0.01,-4.27538204193,-0.273736834526,-8.68599510193,0.01,0.0,0.0,0.0,0.01,0.0,0.0,0.0,0.01
1585296391684179135,8483,1585296391683539730,foot_imu_link,-0.0932993739843,-0.208912149072,-0.470916032791,0.85199123621,0.0,0.0,0.0,0.0,0.0,0.0,0.0,0.0,0.0,0.00109062716365,0.00314850732684,0.00048528984189,0.01,0.0,0.0,0.0,0.01,0.0,0.0,0.0,0.01,-4.31857204437,-0.422001540661,-8.58140850067,0.01,0.0,0.0,0.0,0.01,0.0,0.0,0.0,0.01
1585296391713549952,8484,1585296391712768934,foot_imu_link,-0.0933079123497,-0.20891726017,-0.470858454704,0.852020919323,0.0,0.0,0.0,0.0,0.0,0.0,0.0,0.0,0.0,-0.000836505554616,-0.00191848305985,0.00117215933278,0.01,0.0,0.0,0.0,0.01,0.0,0.0,0.0,0.01,-4.26661968231,-0.415031969547,-8.64848995209,0.01,0.0,0.0,0.0,0.01,0.0,0.0,0.0,0.01
1585296391729406489,8485,1585296391727935305,foot_imu_link,-0.0933159738779,-0.208922252059,-0.470836013556,0.852031171322,0.0,0.0,0.0,0.0,0.0,0.0,0.0,0.0,0.0,-0.000978144817054,-0.00121634709649,0.00331119121984,0.01,0.0,0.0,0.0,0.01,0.0,0.0,0.0,0.01,-4.25015926361,-0.405086517334,-8.59625434875,0.01,0.0,0.0,0.0,0.01,0.0,0.0,0.0,0.01
1585296391745799942,8486,1585296391744533535,foot_imu_link,-0.0933361276984,-0.208928331733,-0.470830440521,0.852030575275,0.0,0.0,0.0,0.0,0.0,0.0,0.0,0.0,0.0,3.43145802617e-05,-0.000828135991469,0.00338671449572,0.01,0.0,0.0,0.0,0.01,0.0,0.0,0.0,0.01,-4.3111872673,-0.341583222151,-8.62010478973,0.01,0.0,0.0,0.0,0.01,0.0,0.0,0.0,0.01
1585296391761771021,8487,1585296391760868054,foot_imu_link,-0.0933427512646,-0.20892226696,-0.470861703157,0.852014064789,0.0,0.0,0.0,0.0,0.0,0.0,0.0,0.0,0.0,0.000323703512549,0.00237668026239,0.00183624075726,0.01,0.0,0.0,0.0,0.01,0.0,0.0,0.0,0.01,-4.28452396393,-0.360376060009,-8.63211631775,0.01,0.0,0.0,0.0,0.01,0.0,0.0,0.0,0.01
1585296391776208593,8488,1585296391775556697,foot_imu_link,-0.093340754509,-0.208919361234,-0.470842599869,0.852025508881,0.0,0.0,0.0,0.0,0.0,0.0,0.0,0.0,0.0,-0.000979914329946,-0.00157829164527,0.00218373350799,0.01,0.0,0.0,0.0,0.01,0.0,0.0,0.0,0.01,-4.26821947098,-0.340472817421,-8.60041904449,0.01,0.0,0.0,0.0,0.01,0.0,0.0,0.0,0.01
1585296391791805903,8489,1585296391790756400,foot_imu_link,-0.0933585688472,-0.20891405642,-0.47086378932,0.852013170719,0.0,0.0,0.0,0.0,0.0,0.0,0.0,0.0,0.0,-0.000550939701498,0.00036519340938,0.000894824042916,0.01,0.0,0.0,0.0,0.01,0.0,0.0,0.0,0.01,-4.29953289032,-0.364953577518,-8.6453742981,0.01,0.0,0.0,0.0,0.01,0.0,0.0,0.0,0.01
1585296391813400697,8490,1585296391812389512,foot_imu_link,-0.0933647677302,-0.208920314908,-0.470860242844,0.852012932301,0.0,0.0,0.0,0.0,0.0,0.0,0.0,0.0,0.0,-1.15130096674e-05,-0.000413005560404,0.00110697560012,0.01,0.0,0.0,0.0,0.01,0.0,0.0,0.0,0.01,-4.29509162903,-0.373050421476,-8.60505962372,0.01,0.0,0.0,0.0,0.01,0.0,0.0,0.0,0.01
1585296391830303339,8491,1585296391828219982,foot_imu_link,-0.0933759585023,-0.20891956985,-0.470864087343,0.852009773254,0.0,0.0,0.0,0.0,0.0,0.0,0.0,0.0,0.0,-0.00142799969763,-0.00050134252524,0.00116820633411,0.01,0.0,0.0,0.0,0.01,0.0,0.0,0.0,0.01,-4.27361011505,-0.371217429638,-8.61263465881,0.01,0.0,0.0,0.0,0.01,0.0,0.0,0.0,0.01
1585296391845631438,8492,1585296391842913524,foot_imu_link,-0.0933821573853,-0.20891341567,-0.47086545825,0.852009832859,0.0,0.0,0.0,0.0,0.0,0.0,0.0,0.0,0.0,0.000622130930424,0.000410619599279,0.00191202852875,0.01,0.0,0.0,0.0,0.01,0.0,0.0,0.0,0.01,-4.28782653809,-0.358556419611,-8.64801025391,0.01,0.0,0.0,0.0,0.01,0.0,0.0,0.0,0.01
1585296391861974170,8493,1585296391859718216,foot_imu_link,-0.0933778509498,-0.208903998137,-0.470853298903,0.852019309998,0.0,0.0,0.0,0.0,0.0,0.0,0.0,0.0,0.0,-0.000470125116408,0.00112918496598,0.00256307516247,0.01,0.0,0.0,0.0,0.01,0.0,0.0,0.0,0.01,-4.2941865921,-0.380975574255,-8.63957977295,0.01,0.0,0.0,0.0,0.01,0.0,0.0,0.0,0.01
1585296391876987098,8494,1585296391876360508,foot_imu_link,-0.0933773741126,-0.208895519376,-0.470829635859,0.852034509182,0.0,0.0,0.0,0.0,0.0,0.0,0.0,0.0,0.0,-0.000261676497757,-2.62591056526e-05,0.0030741142109,0.01,0.0,0.0,0.0,0.01,0.0,0.0,0.0,0.01,-4.28075742722,-0.386555671692,-8.61315155029,0.01,0.0,0.0,0.0,0.01,0.0,0.0,0.0,0.01
1585296391891172954,8495,1585296391890547041,foot_imu_link,-0.093393906951,-0.208879083395,-0.470829457045,0.852036833763,0.0,0.0,0.0,0.0,0.0,0.0,0.0,0.0,0.0,-0.00144605524838,-4.66845813207e-05,0.00331097794697,0.01,0.0,0.0,0.0,0.01,0.0,0.0,0.0,0.01,-4.28755235672,-0.387185513973,-8.60963630676,0.01,0.0,0.0,0.0,0.01,0.0,0.0,0.0,0.01
1585296391906469309,8496,1585296391905607070,foot_imu_link,-0.0934090390801,-0.208862155676,-0.470855414867,0.852024972439,0.0,0.0,0.0,0.0,0.0,0.0,0.0,0.0,0.0,-0.00113822054118,0.000803082482889,0.00254269596189,0.01,0.0,0.0,0.0,0.01,0.0,0.0,0.0,0.01,-4.25336408615,-0.368790060282,-8.63079452515,0.01,0.0,0.0,0.0,0.01,0.0,0.0,0.0,0.01
1585296391927742511,8497,1585296391927507435,foot_imu_link,-0.0934186056256,-0.2088560462,-0.470799982548,0.852056026459,0.0,0.0,0.0,0.0,0.0,0.0,0.0,0.0,0.0,-0.000875688157976,3.11686308123e-05,0.0024274289608,0.01,0.0,0.0,0.0,0.01,0.0,0.0,0.0,0.01,-4.26803541183,-0.365659713745,-8.63439655304,0.01,0.0,0.0,0.0,0.01,0.0,0.0,0.0,0.01
1585296391943004427,8498,1585296391942781980,foot_imu_link,-0.0934131965041,-0.208846092224,-0.47077819705,0.852071166039,0.0,0.0,0.0,0.0,0.0,0.0,0.0,0.0,0.0,0.00013604387641,0.00145062746014,0.00285065127537,0.01,0.0,0.0,0.0,0.01,0.0,0.0,0.0,0.01,-4.28875637054,-0.365881681442,-8.65666007996,0.01,0.0,0.0,0.0,0.01,0.0,0.0,0.0,0.01
1585296391959720547,8499,1585296391959501016,foot_imu_link,-0.0934235826135,-0.208836376667,-0.470762431622,0.852081120014,0.0,0.0,0.0,0.0,0.0,0.0,0.0,0.0,0.0,-0.00178073439747,0.00162677234039,0.00235947454348,0.01,0.0,0.0,0.0,0.01,0.0,0.0,0.0,0.01,-4.27633857727,-0.384797632694,-8.60620594025,0.01,0.0,0.0,0.0,0.01,0.0,0.0,0.0,0.01
1585296391974886650,8500,1585296391974642012,foot_imu_link,-0.0934351161122,-0.208817109466,-0.470765531063,0.852082848549,0.0,0.0,0.0,0.0,0.0,0.0,0.0,0.0,0.0,-0.000123929232359,0.00186781794764,0.00205784011632,0.01,0.0,0.0,0.0,0.01,0.0,0.0,0.0,0.01,-4.28963947296,-0.36190405488,-8.61957550049,0.01,0.0,0.0,0.0,0.01,0.0,0.0,0.0,0.01
1585296391990729720,8501,1585296391990173476,foot_imu_link,-0.0934374108911,-0.208799242973,-0.470767378807,0.85208594799,0.0,0.0,0.0,0.0,0.0,0.0,0.0,0.0,0.0,-0.00131679140031,0.00152203720063,0.00162490596995,0.01,0.0,0.0,0.0,0.01,0.0,0.0,0.0,0.01,-4.25359344482,-0.357417523861,-8.63194274902,0.01,0.0,0.0,0.0,0.01,0.0,0.0,0.0,0.01
1585296392006273009,8502,1585296392005563475,foot_imu_link,-0.0934414789081,-0.208785742521,-0.470768839121,0.852088034153,0.0,0.0,0.0,0.0,0.0,0.0,0.0,0.0,0.0,-0.00144702848047,0.000994383357465,0.000783331692219,0.01,0.0,0.0,0.0,0.01,0.0,0.0,0.0,0.01,-4.27264165878,-0.353979378939,-8.61182022095,0.01,0.0,0.0,0.0,0.01,0.0,0.0,0.0,0.01
1585296392027997304,8503,1585296392027370208,foot_imu_link,-0.0934396833181,-0.208765417337,-0.470743358135,0.852107286453,0.0,0.0,0.0,0.0,0.0,0.0,0.0,0.0,0.0,-0.00117699801922,0.00176011351869,0.000584081746638,0.01,0.0,0.0,0.0,0.01,0.0,0.0,0.0,0.01,-4.28467464447,-0.372831702232,-8.61256504059,0.01,0.0,0.0,0.0,0.01,0.0,0.0,0.0,0.01
1585296392043976317,8504,1585296392042713358,foot_imu_link,-0.093428902328,-0.208757400513,-0.470722198486,0.852122068405,0.0,0.0,0.0,0.0,0.0,0.0,0.0,0.0,0.0,-0.000121159479022,0.00432869186625,0.000784591306001,0.01,0.0,0.0,0.0,0.01,0.0,0.0,0.0,0.01,-4.27189922333,-0.356739699841,-8.60921955109,0.01,0.0,0.0,0.0,0.01,0.0,0.0,0.0,0.01
1585296392061130965,8505,1585296392058264843,foot_imu_link,-0.0934356600046,-0.208739668131,-0.470712810755,0.852130889893,0.0,0.0,0.0,0.0,0.0,0.0,0.0,0.0,0.0,-0.00215446390212,-0.000428029336035,0.00118457432836,0.01,0.0,0.0,0.0,0.01,0.0,0.0,0.0,0.01,-4.32085132599,-0.489130318165,-8.59908294678,0.01,0.0,0.0,0.0,0.01,0.0,0.0,0.0,0.01
1585296392076030681,8506,1585296392074624956,foot_imu_link,-0.0934432893991,-0.208710491657,-0.470709711313,0.852138876915,0.0,0.0,0.0,0.0,0.0,0.0,0.0,0.0,0.0,-0.000912198796868,0.0022549640853,0.00312887597829,0.01,0.0,0.0,0.0,0.01,0.0,0.0,0.0,0.01,-4.19834804535,-0.496888577938,-8.60690116882,0.01,0.0,0.0,0.0,0.01,0.0,0.0,0.0,0.01
1585296392091358711,8507,1585296392090526830,foot_imu_link,-0.0934379547834,-0.208694249392,-0.470703154802,0.852147102356,0.0,0.0,0.0,0.0,0.0,0.0,0.0,0.0,0.0,0.000959376804531,0.000428026018199,-0.00122368102893,0.01,0.0,0.0,0.0,0.01,0.0,0.0,0.0,0.01,-4.29409885406,-0.36443811655,-8.60852336884,0.01,0.0,0.0,0.0,0.01,0.0,0.0,0.0,0.01
1585296392108366395,8508,1585296392106841586,foot_imu_link,-0.0934440791607,-0.208691135049,-0.470703005791,0.85214728117,0.0,0.0,0.0,0.0,0.0,0.0,0.0,0.0,0.0,0.000824236311018,0.00140965660103,-0.000352425500751,0.01,0.0,0.0,0.0,0.01,0.0,0.0,0.0,0.01,-4.33986997604,-0.290802508593,-8.61618614197,0.01,0.0,0.0,0.0,0.01,0.0,0.0,0.0,0.01
1585296392122001608,8509,1585296392120829269,foot_imu_link,-0.0934453159571,-0.208676576614,-0.470682889223,0.852161765099,0.0,0.0,0.0,0.0,0.0,0.0,0.0,0.0,0.0,-0.00255733914673,0.00337990326807,0.000920209567994,0.01,0.0,0.0,0.0,0.01,0.0,0.0,0.0,0.01,-4.25739240646,-0.388013482094,-8.62135219574,0.01,0.0,0.0,0.0,0.01,0.0,0.0,0.0,0.01
1585296392143449801,8510,1585296392142487468,foot_imu_link,-0.0934492349625,-0.208680287004,-0.470700621605,0.852150678635,0.0,0.0,0.0,0.0,0.0,0.0,0.0,0.0,0.0,0.000790286809206,3.59960831702e-05,-0.000124637503177,0.01,0.0,0.0,0.0,0.01,0.0,0.0,0.0,0.01,-4.31231594086,-0.295519709587,-8.6884021759,0.01,0.0,0.0,0.0,0.01,0.0,0.0,0.0,0.01
1585296392158260259,8511,1585296392157617695,foot_imu_link,-0.0934444889426,-0.208679556847,-0.470652520657,0.852177858353,0.0,0.0,0.0,0.0,0.0,0.0,0.0,0.0,0.0,-0.00130918901414,-0.00151753192768,0.00274024857208,0.01,0.0,0.0,0.0,0.01,0.0,0.0,0.0,0.01,-4.20821237564,-0.311958283186,-8.58186340332,0.01,0.0,0.0,0.0,0.01,0.0,0.0,0.0,0.01
1585296392174399708,8512,1585296392174125659,foot_imu_link,-0.09344766289,-0.208689749241,-0.470661640167,0.852170050144,0.0,0.0,0.0,0.0,0.0,0.0,0.0,0.0,0.0,0.00140951294452,-0.00196628086269,0.000615184661001,0.01,0.0,0.0,0.0,0.01,0.0,0.0,0.0,0.01,-4.22489261627,-0.279776990414,-8.58628368378,0.01,0.0,0.0,0.0,0.01,0.0,0.0,0.0,0.01
1585296392205197327,8513,1585296392204911656,foot_imu_link,-0.0934295281768,-0.208728998899,-0.47062048316,0.852185130119,0.0,0.0,0.0,0.0,0.0,0.0,0.0,0.0,0.0,0.0013898126781,0.000499123008922,0.000616793055087,0.01,0.0,0.0,0.0,0.01,0.0,0.0,0.0,0.01,-4.29811859131,-0.373778134584,-8.6337890625,0.01,0.0,0.0,0.0,0.01,0.0,0.0,0.0,0.01
1585296392220401277,8514,1585296392220091469,foot_imu_link,-0.0934294685721,-0.208737075329,-0.470609843731,0.852189064026,0.0,0.0,0.0,0.0,0.0,0.0,0.0,0.0,0.0,0.000374397262931,-0.00171015248634,0.000908083748072,0.01,0.0,0.0,0.0,0.01,0.0,0.0,0.0,0.01,-4.29409694672,-0.379555821419,-8.60181427002,0.01,0.0,0.0,0.0,0.01,0.0,0.0,0.0,0.01
1585296392242619562,8515,1585296392242209377,foot_imu_link,-0.0934356600046,-0.208752408624,-0.470592647791,0.852194130421,0.0,0.0,0.0,0.0,0.0,0.0,0.0,0.0,0.0,8.74772667885e-05,-0.0020009719301,0.00218613725156,0.01,0.0,0.0,0.0,0.01,0.0,0.0,0.0,0.01,-4.27715444565,-0.369071543217,-8.66594219208,0.01,0.0,0.0,0.0,0.01,0.0,0.0,0.0,0.01
1585296392258352016,8516,1585296392257647818,foot_imu_link,-0.0934443473816,-0.208762377501,-0.470582842827,0.852196156979,0.0,0.0,0.0,0.0,0.0,0.0,0.0,0.0,0.0,-0.000744772143662,-0.00217755744234,0.00174698419869,0.01,0.0,0.0,0.0,0.01,0.0,0.0,0.0,0.01,-4.28299045563,-0.3564889431,-8.61705589294,0.01,0.0,0.0,0.0,0.01,0.0,0.0,0.0,0.01
1585296392273648197,8517,1585296392272996047,foot_imu_link,-0.0934576317668,-0.208779886365,-0.470573961735,0.852195322514,0.0,0.0,0.0,0.0,0.0,0.0,0.0,0.0,0.0,0.00150700006634,-0.00271864654496,0.0028922194615,0.01,0.0,0.0,0.0,0.01,0.0,0.0,0.0,0.01,-4.29839420319,-0.343069583178,-8.62560844421,0.01,0.0,0.0,0.0,0.01,0.0,0.0,0.0,0.01
1585296392290280473,8518,1585296392289452088,foot_imu_link,-0.093462228775,-0.208801075816,-0.470556139946,0.852199435234,0.0,0.0,0.0,0.0,0.0,0.0,0.0,0.0,0.0,0.00087114982307,-0.0033952970989,0.00209969421849,0.01,0.0,0.0,0.0,0.01,0.0,0.0,0.0,0.01,-4.24540805817,-0.36590641737,-8.61554718018,0.01,0.0,0.0,0.0,0.01,0.0,0.0,0.0,0.01
1585296392305984750,8519,1585296392305157183,foot_imu_link,-0.0934647023678,-0.208836510777,-0.470553725958,0.85219180584,0.0,0.0,0.0,0.0,0.0,0.0,0.0,0.0,0.0,0.00227847509086,-0.00262554455549,0.000857285689563,0.01,0.0,0.0,0.0,0.01,0.0,0.0,0.0,0.01,-4.27431583405,-0.383763819933,-8.61690711975,0.01,0.0,0.0,0.0,0.01,0.0,0.0,0.0,0.01
1585296392321009427,8520,1585296392320366635,foot_imu_link,-0.0934471338987,-0.208854466677,-0.470532089472,0.852201342583,0.0,0.0,0.0,0.0,0.0,0.0,0.0,0.0,0.0,0.00305646657944,-0.00128840631805,0.00150971254334,0.01,0.0,0.0,0.0,0.01,0.0,0.0,0.0,0.01,-4.26578426361,-0.373398929834,-8.62579345703,0.01,0.0,0.0,0.0,0.01,0.0,0.0,0.0,0.01
1585296392336660597,8521,1585296392335585404,foot_imu_link,-0.0934433415532,-0.208863928914,-0.47053706646,0.85219669342,0.0,0.0,0.0,0.0,0.0,0.0,0.0,0.0,0.0,0.00167304463685,-0.000656572286971,0.00173890171573,0.01,0.0,0.0,0.0,0.01,0.0,0.0,0.0,0.01,-4.26379203796,-0.347643435001,-8.62020301819,0.01,0.0,0.0,0.0,0.01,0.0,0.0,0.0,0.01
1585296392358665446,8522,1585296392357426815,foot_imu_link,-0.0934230834246,-0.20886169374,-0.470533251762,0.852201521397,0.0,0.0,0.0,0.0,0.0,0.0,0.0,0.0,0.0,0.00203609839082,-0.000104142498458,0.00103702861816,0.01,0.0,0.0,0.0,0.01,0.0,0.0,0.0,0.01,-4.27549743652,-0.39394980669,-8.61253738403,0.01,0.0,0.0,0.0,0.01,0.0,0.0,0.0,0.01
1585296392373303717,8523,1585296392372629025,foot_imu_link,-0.0934063047171,-0.208861500025,-0.470531970263,0.852204084396,0.0,0.0,0.0,0.0,0.0,0.0,0.0,0.0,0.0,0.001729587093,0.00100436108187,0.00175159191713,0.01,0.0,0.0,0.0,0.01,0.0,0.0,0.0,0.01,-4.27046966553,-0.337706744671,-8.62376213074,0.01,0.0,0.0,0.0,0.01,0.0,0.0,0.0,0.01
1585296392389998770,8524,1585296392389290589,foot_imu_link,-0.0933903679252,-0.208869338036,-0.47050434351,0.852219223976,0.0,0.0,0.0,0.0,0.0,0.0,0.0,0.0,0.0,0.00160902831703,0.000797673652414,0.00177884381264,0.01,0.0,0.0,0.0,0.01,0.0,0.0,0.0,0.01,-4.26388263702,-0.370005190372,-8.64789676666,0.01,0.0,0.0,0.0,0.01,0.0,0.0,0.0,0.01
1585296392420903663,8525,1585296392420283527,foot_imu_link,-0.093374826014,-0.208901673555,-0.470514446497,0.852207422256,0.0,0.0,0.0,0.0,0.0,0.0,0.0,0.0,0.0,0.00298455450684,-0.00302952178754,0.00122772483155,0.01,0.0,0.0,0.0,0.01,0.0,0.0,0.0,0.01,-4.29163360596,-0.371993511915,-8.61945438385,0.01,0.0,0.0,0.0,0.01,0.0,0.0,0.0,0.01
1585296392436362879,8526,1585296392435414665,foot_imu_link,-0.0933741554618,-0.208911269903,-0.470519602299,0.852202177048,0.0,0.0,0.0,0.0,0.0,0.0,0.0,0.0,0.0,0.00191209837794,-0.00101320620161,0.00268770474941,0.01,0.0,0.0,0.0,0.01,0.0,0.0,0.0,0.01,-4.29604959488,-0.366187155247,-8.64307308197,0.01,0.0,0.0,0.0,0.01,0.0,0.0,0.0,0.01
1585296392467166733,8527,1585296392465913232,foot_imu_link,-0.0933582261205,-0.208945795894,-0.470489501953,0.852212190628,0.0,0.0,0.0,0.0,0.0,0.0,0.0,0.0,0.0,0.00212231092155,0.000135083158966,0.00185505673289,0.01,0.0,0.0,0.0,0.01,0.0,0.0,0.0,0.01,-4.28164434433,-0.385342210531,-8.64235687256,0.01,0.0,0.0,0.0,0.01,0.0,0.0,0.0,0.01
1585296392488337271,8528,1585296392487662513,foot_imu_link,-0.0933267995715,-0.20893843472,-0.470462530851,0.852232336998,0.0,0.0,0.0,0.0,0.0,0.0,0.0,0.0,0.0,0.00220921542495,0.00179814139847,0.00346803758293,0.01,0.0,0.0,0.0,0.01,0.0,0.0,0.0,0.01,-4.268242836,-0.391372084618,-8.61976051331,0.01,0.0,0.0,0.0,0.01,0.0,0.0,0.0,0.01
1585296392505207546,8529,1585296392504231448,foot_imu_link,-0.0933056473732,-0.208934888244,-0.470443844795,0.852245807648,0.0,0.0,0.0,0.0,0.0,0.0,0.0,0.0,0.0,0.00183493085206,0.00139908515848,0.00205130828544,0.01,0.0,0.0,0.0,0.01,0.0,0.0,0.0,0.01,-4.29128217697,-0.363519668579,-8.62035274506,0.01,0.0,0.0,0.0,0.01,0.0,0.0,0.0,0.01
1585296392520840033,8530,1585296392520178918,foot_imu_link,-0.0932946354151,-0.20893137157,-0.470423400402,0.852259218693,0.0,0.0,0.0,0.0,0.0,0.0,0.0,0.0,0.0,0.00178568996489,0.000123422825709,0.00317195570096,0.01,0.0,0.0,0.0,0.01,0.0,0.0,0.0,0.01,-4.31930017471,-0.381506800652,-8.65002632141,0.01,0.0,0.0,0.0,0.01,0.0,0.0,0.0,0.01
1585296392536095031,8531,1585296392535503418,foot_imu_link,-0.093292824924,-0.208924025297,-0.470424026251,0.852260828018,0.0,0.0,0.0,0.0,0.0,0.0,0.0,0.0,0.0,0.000518050976098,0.000689431442879,0.00215258495882,0.01,0.0,0.0,0.0,0.01,0.0,0.0,0.0,0.01,-4.27346992493,-0.345704436302,-8.6446723938,0.01,0.0,0.0,0.0,0.01,0.0,0.0,0.0,0.01
1585296392551648892,8532,1585296392550968869,foot_imu_link,-0.0932810530066,-0.208919733763,-0.470412254333,0.852269649506,0.0,0.0,0.0,0.0,0.0,0.0,0.0,0.0,0.0,0.00279988534749,0.000982723664492,0.00235629314557,0.01,0.0,0.0,0.0,0.01,0.0,0.0,0.0,0.01,-4.2644329071,-0.371621549129,-8.5980052948,0.01,0.0,0.0,0.0,0.01,0.0,0.0,0.0,0.01
1585296392573346651,8533,1585296392572420875,foot_imu_link,-0.0932697877288,-0.208934336901,-0.470380336046,0.852284908295,0.0,0.0,0.0,0.0,0.0,0.0,0.0,0.0,0.0,0.00124255381525,0.000607624300756,-0.00011795386672,0.01,0.0,0.0,0.0,0.01,0.0,0.0,0.0,0.01,-4.28976774216,-0.366995304823,-8.63384246826,0.01,0.0,0.0,0.0,0.01,0.0,0.0,0.0,0.01
1585296392588671951,8534,1585296392587580654,foot_imu_link,-0.0932583734393,-0.208947077394,-0.470370143652,0.852288663387,0.0,0.0,0.0,0.0,0.0,0.0,0.0,0.0,0.0,0.00334731163457,-0.00119452446233,0.00102264760062,0.01,0.0,0.0,0.0,0.01,0.0,0.0,0.0,0.01,-4.24509000778,-0.365297794342,-8.62594032288,0.01,0.0,0.0,0.0,0.01,0.0,0.0,0.0,0.01
1585296392604990578,8535,1585296392604355226,foot_imu_link,-0.0932425484061,-0.208967640996,-0.470364958048,0.852288246155,0.0,0.0,0.0,0.0,0.0,0.0,0.0,0.0,0.0,0.00465748412535,-0.000979124219157,-0.00106577342376,0.01,0.0,0.0,0.0,0.01,0.0,0.0,0.0,0.01,-4.24373531342,-0.353541374207,-8.6071138382,0.01,0.0,0.0,0.0,0.01,0.0,0.0,0.0,0.01
1585296392635912776,8536,1585296392635226142,foot_imu_link,-0.0931961461902,-0.209020093083,-0.47036498785,0.852280378342,0.0,0.0,0.0,0.0,0.0,0.0,0.0,0.0,0.0,0.00557600706816,-0.00396487629041,-0.000817674677819,0.01,0.0,0.0,0.0,0.01,0.0,0.0,0.0,0.01,-4.3830332756,-0.394976824522,-8.67360591888,0.01,0.0,0.0,0.0,0.01,0.0,0.0,0.0,0.01
1585296392651252703,8537,1585296392650601667,foot_imu_link,-0.0931630134583,-0.209050685167,-0.470355570316,0.852281749249,0.0,0.0,0.0,0.0,0.0,0.0,0.0,0.0,0.0,0.00526001444086,-0.00310313189402,-0.00143988756463,0.01,0.0,0.0,0.0,0.01,0.0,0.0,0.0,0.01,-4.28128194809,-0.361222684383,-8.61675453186,0.01,0.0,0.0,0.0,0.01,0.0,0.0,0.0,0.01
1585296392687746941,8538,1585296392687308733,foot_imu_link,-0.0931006148458,-0.209112375975,-0.470328062773,0.852288544178,0.0,0.0,0.0,0.0,0.0,0.0,0.0,0.0,0.0,0.00600603641942,-0.0011046284344,-0.0020061545074,0.01,0.0,0.0,0.0,0.01,0.0,0.0,0.0,0.01,-4.2818365097,-0.356503278017,-8.6359872818,0.01,0.0,0.0,0.0,0.01,0.0,0.0,0.0,0.01
1585296392704472826,8539,1585296392702703342,foot_imu_link,-0.093066573143,-0.209110304713,-0.470317840576,0.852298498154,0.0,0.0,0.0,0.0,0.0,0.0,0.0,0.0,0.0,0.00460962159559,0.000343452091329,0.00146465562284,0.01,0.0,0.0,0.0,0.01,0.0,0.0,0.0,0.01,-4.21296834946,-0.354071140289,-8.66412353516,0.01,0.0,0.0,0.0,0.01,0.0,0.0,0.0,0.01
1585296392720115552,8540,1585296392719368375,foot_imu_link,-0.0930397138,-0.20913118124,-0.470324188471,0.852292776108,0.0,0.0,0.0,0.0,0.0,0.0,0.0,0.0,0.0,0.0015076668933,-0.00125933857635,-0.00106018362567,0.01,0.0,0.0,0.0,0.01,0.0,0.0,0.0,0.01,-4.2743768692,-0.380438417196,-8.56228351593,0.01,0.0,0.0,0.0,0.01,0.0,0.0,0.0,0.01
1585296392735723325,8541,1585296392734987296,foot_imu_link,-0.0930055752397,-0.20916377008,-0.470326304436,0.852287352085,0.0,0.0,0.0,0.0,0.0,0.0,0.0,0.0,0.0,0.00235195364803,-0.00147808622569,-0.000633928924799,0.01,0.0,0.0,0.0,0.01,0.0,0.0,0.0,0.01,-4.25696706772,-0.319748073816,-8.60842132568,0.01,0.0,0.0,0.0,0.01,0.0,0.0,0.0,0.01
1585296392751438962,8542,1585296392750665132,foot_imu_link,-0.0929831340909,-0.20919047296,-0.47030711174,0.852293848991,0.0,0.0,0.0,0.0,0.0,0.0,0.0,0.0,0.0,0.00146877579391,-0.000518385786563,-0.000420548021793,0.01,0.0,0.0,0.0,0.01,0.0,0.0,0.0,0.01,-4.30852222443,-0.352254331112,-8.60572528839,0.01,0.0,0.0,0.0,0.01,0.0,0.0,0.0,0.01
1585296392766461661,8543,1585296392765513938,foot_imu_link,-0.0929636135697,-0.209213137627,-0.470310926437,0.852288246155,0.0,0.0,0.0,0.0,0.0,0.0,0.0,0.0,0.0,0.00326347490773,-0.00180519709829,-0.000804813578725,0.01,0.0,0.0,0.0,0.01,0.0,0.0,0.0,0.01,-4.27118492126,-0.38755556941,-8.61905765533,0.01,0.0,0.0,0.0,0.01,0.0,0.0,0.0,0.01
1585296392789131010,8544,1585296392787330613,foot_imu_link,-0.0929500758648,-0.209242790937,-0.470321178436,0.852276802063,0.0,0.0,0.0,0.0,0.0,0.0,0.0,0.0,0.0,0.00217905454338,-0.00137373572215,0.000686533283442,0.01,0.0,0.0,0.0,0.01,0.0,0.0,0.0,0.01,-4.28816652298,-0.36718338728,-8.6345615387,0.01,0.0,0.0,0.0,0.01,0.0,0.0,0.0,0.01
1585296392803747064,8545,1585296392802413247,foot_imu_link,-0.0929352194071,-0.209257304668,-0.470322221518,0.852274298668,0.0,0.0,0.0,0.0,0.0,0.0,0.0,0.0,0.0,0.0021317275241,-0.000126802537125,1.68327242136e-05,0.01,0.0,0.0,0.0,0.01,0.0,0.0,0.0,0.01,-4.28631496429,-0.36972501874,-8.58992767334,0.01,0.0,0.0,0.0,0.01,0.0,0.0,0.0,0.01
1585296392820668078,8546,1585296392819264859,foot_imu_link,-0.0929207578301,-0.209262356162,-0.470310121775,0.852281332016,0.0,0.0,0.0,0.0,0.0,0.0,0.0,0.0,0.0,0.00092342030257,0.00160435284488,0.00288520287722,0.01,0.0,0.0,0.0,0.01,0.0,0.0,0.0,0.01,-4.28311157227,-0.382696866989,-8.61520862579,0.01,0.0,0.0,0.0,0.01,0.0,0.0,0.0,0.01
1585296392851204252,8547,1585296392850352998,foot_imu_link,-0.0929046422243,-0.209267795086,-0.470280736685,0.852297961712,0.0,0.0,0.0,0.0,0.0,0.0,0.0,0.0,0.0,0.00316382432356,0.000145640748087,0.00378710776567,0.01,0.0,0.0,0.0,0.01,0.0,0.0,0.0,0.01,-4.28294277191,-0.360446453094,-8.62535476685,0.01,0.0,0.0,0.0,0.01,0.0,0.0,0.0,0.01
1585296392866605045,8548,1585296392865536293,foot_imu_link,-0.092882938683,-0.209276080132,-0.470267295837,0.852305710316,0.0,0.0,0.0,0.0,0.0,0.0,0.0,0.0,0.0,0.00393129978329,0.000234714825638,0.00154477497563,0.01,0.0,0.0,0.0,0.01,0.0,0.0,0.0,0.01,-4.26280021667,-0.374241054058,-8.65216827393,0.01,0.0,0.0,0.0,0.01,0.0,0.0,0.0,0.01
1585296392905362547,8549,1585296392903482956,foot_imu_link,-0.0928275957704,-0.209338948131,-0.470237761736,0.852312624454,0.0,0.0,0.0,0.0,0.0,0.0,0.0,0.0,0.0,0.00332076428458,-0.00190907181241,0.000437644775957,0.01,0.0,0.0,0.0,0.01,0.0,0.0,0.0,0.01,-4.26482105255,-0.367843747139,-8.60642147064,0.01,0.0,0.0,0.0,0.01,0.0,0.0,0.0,0.01
1585296392918884126,8550,1585296392917265901,foot_imu_link,-0.0928089544177,-0.20935973525,-0.4702219069,0.852318227291,0.0,0.0,0.0,0.0,0.0,0.0,0.0,0.0,0.0,0.0039832200855,-0.00134348927531,0.00110642286018,0.01,0.0,0.0,0.0,0.01,0.0,0.0,0.0,0.01,-4.2980427742,-0.370740771294,-8.60764980316,0.01,0.0,0.0,0.0,0.01,0.0,0.0,0.0,0.01
1585296392935455518,8551,1585296392934182299,foot_imu_link,-0.0927918851376,-0.209387302399,-0.47020855546,0.852320730686,0.0,0.0,0.0,0.0,0.0,0.0,0.0,0.0,0.0,0.0027571762912,-0.00255142361857,0.00133870076388,0.01,0.0,0.0,0.0,0.01,0.0,0.0,0.0,0.01,-4.27538394928,-0.378649681807,-8.60553264618,0.01,0.0,0.0,0.0,0.01,0.0,0.0,0.0,0.01
1585296392951674654,8552,1585296392950369213,foot_imu_link,-0.0927932783961,-0.209410041571,-0.470188975334,0.852325737476,0.0,0.0,0.0,0.0,0.0,0.0,0.0,0.0,0.0,0.00220199115574,-0.00225207209587,0.00481565622613,0.01,0.0,0.0,0.0,0.01,0.0,0.0,0.0,0.01,-4.27811288834,-0.348521828651,-8.59676551819,0.01,0.0,0.0,0.0,0.01,0.0,0.0,0.0,0.01
1585296392965757423,8553,1585296392965091920,foot_imu_link,-0.0927841588855,-0.209430620074,-0.470185697079,0.852323532104,0.0,0.0,0.0,0.0,0.0,0.0,0.0,0.0,0.0,0.00359232863411,-6.13468000665e-05,0.00285164965317,0.01,0.0,0.0,0.0,0.01,0.0,0.0,0.0,0.01,-4.29353427887,-0.37383389473,-8.62906074524,0.01,0.0,0.0,0.0,0.01,0.0,0.0,0.0,0.01
1585296392981311652,8554,1585296392980583223,foot_imu_link,-0.0927680581808,-0.209451287985,-0.470161736012,0.852333366871,0.0,0.0,0.0,0.0,0.0,0.0,0.0,0.0,0.0,0.00504563283175,-0.00311190751381,0.00196753069758,0.01,0.0,0.0,0.0,0.01,0.0,0.0,0.0,0.01,-4.27809429169,-0.374212622643,-8.61934566498,0.01,0.0,0.0,0.0,0.01,0.0,0.0,0.0,0.01
1585296393003047962,8555,1585296393002247796,foot_imu_link,-0.0927335172892,-0.209495782852,-0.470133036375,0.852342069149,0.0,0.0,0.0,0.0,0.0,0.0,0.0,0.0,0.0,0.00510128447786,-0.00397415785119,0.00172199681401,0.01,0.0,0.0,0.0,0.01,0.0,0.0,0.0,0.01,-4.27914428711,-0.373377263546,-8.63930225372,0.01,0.0,0.0,0.0,0.01,0.0,0.0,0.0,0.01
1585296393017683828,8556,1585296393017114895,foot_imu_link,-0.0927170813084,-0.209539294243,-0.470108002424,0.85234695673,0.0,0.0,0.0,0.0,0.0,0.0,0.0,0.0,0.0,0.00494161807001,-0.00459951488301,0.00187843898311,0.01,0.0,0.0,0.0,0.01,0.0,0.0,0.0,0.01,-4.2580165863,-0.366160690784,-8.61510848999,0.01,0.0,0.0,0.0,0.01,0.0,0.0,0.0,0.01
1585296393034528838,8557,1585296393033812807,foot_imu_link,-0.092703178525,-0.20958301425,-0.47010487318,0.85233938694,0.0,0.0,0.0,0.0,0.0,0.0,0.0,0.0,0.0,0.00646198913455,-0.00539234094322,0.00132201006636,0.01,0.0,0.0,0.0,0.01,0.0,0.0,0.0,0.01,-4.25710630417,-0.3663418293,-8.61699295044,0.01,0.0,0.0,0.0,0.01,0.0,0.0,0.0,0.01
1585296393066635134,8558,1585296393065057346,foot_imu_link,-0.0926612839103,-0.209719419479,-0.470058560371,0.852335989475,0.0,0.0,0.0,0.0,0.0,0.0,0.0,0.0,0.0,0.00552777480334,-0.00542239658535,0.0037401993759,0.01,0.0,0.0,0.0,0.01,0.0,0.0,0.0,0.01,-4.29148721695,-0.371308326721,-8.5959186554,0.01,0.0,0.0,0.0,0.01,0.0,0.0,0.0,0.01
1585296393081034564,8559,1585296393080210029,foot_imu_link,-0.09265293926,-0.209771081805,-0.470038026571,0.852335512638,0.0,0.0,0.0,0.0,0.0,0.0,0.0,0.0,0.0,0.00407494045794,-0.00620044767857,0.00404894025996,0.01,0.0,0.0,0.0,0.01,0.0,0.0,0.0,0.01,-4.28835487366,-0.378358870745,-8.64860916138,0.01,0.0,0.0,0.0,0.01,0.0,0.0,0.0,0.01
1585296393117501125,8560,1585296393116930160,foot_imu_link,-0.0926557928324,-0.20983555913,-0.469958394766,0.852363228798,0.0,0.0,0.0,0.0,0.0,0.0,0.0,0.0,0.0,0.00283316429704,-0.00254320399836,0.00399828050286,0.01,0.0,0.0,0.0,0.01,0.0,0.0,0.0,0.01,-4.3438539505,-0.245018273592,-8.61323451996,0.01,0.0,0.0,0.0,0.01,0.0,0.0,0.0,0.01
1585296393134685394,8561,1585296393132377893,foot_imu_link,-0.0926569104195,-0.209845095873,-0.469940453768,0.852370619774,0.0,0.0,0.0,0.0,0.0,0.0,0.0,0.0,0.0,0.000284031964839,-0.00244942866266,0.00524855358526,0.01,0.0,0.0,0.0,0.01,0.0,0.0,0.0,0.01,-4.26994991302,-0.3146058321,-8.6245174408,0.01,0.0,0.0,0.0,0.01,0.0,0.0,0.0,0.01
1585296393149607374,8562,1585296393148962374,foot_imu_link,-0.0926751419902,-0.20984223485,-0.469921499491,0.852379858494,0.0,0.0,0.0,0.0,0.0,0.0,0.0,0.0,0.0,0.00113564543426,-0.00241749477573,0.00334071507677,0.01,0.0,0.0,0.0,0.01,0.0,0.0,0.0,0.01,-4.32574319839,-0.428231447935,-8.58865737915,0.01,0.0,0.0,0.0,0.01,0.0,0.0,0.0,0.01
1585296393166439419,8563,1585296393165034835,foot_imu_link,-0.0926653519273,-0.209864705801,-0.469905138016,0.852384448051,0.0,0.0,0.0,0.0,0.0,0.0,0.0,0.0,0.0,0.00294261751696,-0.00365233700722,0.00126723572612,0.01,0.0,0.0,0.0,0.01,0.0,0.0,0.0,0.01,-4.29569339752,-0.416765213013,-8.5595369339,0.01,0.0,0.0,0.0,0.01,0.0,0.0,0.0,0.01
1585296393183269885,8564,1585296393180291525,foot_imu_link,-0.0926631912589,-0.209876731038,-0.469897657633,0.852385759354,0.0,0.0,0.0,0.0,0.0,0.0,0.0,0.0,0.0,-0.000704438425601,-0.000389019551221,0.0024704746902,0.01,0.0,0.0,0.0,0.01,0.0,0.0,0.0,0.01,-4.26954936981,-0.397044062614,-8.6332988739,0.01,0.0,0.0,0.0,0.01,0.0,0.0,0.0,0.01
1585296393197191218,8565,1585296393195465620,foot_imu_link,-0.0926788300276,-0.209881514311,-0.469875127077,0.852395355701,0.0,0.0,0.0,0.0,0.0,0.0,0.0,0.0,0.0,-0.00182523205876,-0.00297702662647,0.00380497984588,0.01,0.0,0.0,0.0,0.01,0.0,0.0,0.0,0.01,-4.2806558609,-0.378233224154,-8.62612915039,0.01,0.0,0.0,0.0,0.01,0.0,0.0,0.0,0.01
1585296393218097529,8566,1585296393216902789,foot_imu_link,-0.0927095934749,-0.209882289171,-0.469863325357,0.852398276329,0.0,0.0,0.0,0.0,0.0,0.0,0.0,0.0,0.0,-0.00146843492985,-0.000295646372251,0.00248134322464,0.01,0.0,0.0,0.0,0.01,0.0,0.0,0.0,0.01,-4.28936815262,-0.355817914009,-8.60174751282,0.01,0.0,0.0,0.0,0.01,0.0,0.0,0.0,0.01
1585296393233136545,8567,1585296393232446134,foot_imu_link,-0.0927195847034,-0.209870561957,-0.469849228859,0.852407872677,0.0,0.0,0.0,0.0,0.0,0.0,0.0,0.0,0.0,0.000445293262601,-0.000385690451367,0.00222928449512,0.01,0.0,0.0,0.0,0.01,0.0,0.0,0.0,0.01,-4.23988485336,-0.362089961767,-8.62712669373,0.01,0.0,0.0,0.0,0.01,0.0,0.0,0.0,0.01
1585296393249467911,8568,1585296393248853229,foot_imu_link,-0.092714689672,-0.209873661399,-0.469820857048,0.852423250675,0.0,0.0,0.0,0.0,0.0,0.0,0.0,0.0,0.0,0.000884502194822,-0.000753526634071,0.00169391743839,0.01,0.0,0.0,0.0,0.01,0.0,0.0,0.0,0.01,-4.25497961044,-0.412042021751,-8.53125190735,0.01,0.0,0.0,0.0,0.01,0.0,0.0,0.0,0.01
1585296393280835835,8569,1585296393280215594,foot_imu_link,-0.0927044525743,-0.209931641817,-0.469774276018,0.852435767651,0.0,0.0,0.0,0.0,0.0,0.0,0.0,0.0,0.0,0.00319817755371,-0.0049833972007,0.00421931035817,0.01,0.0,0.0,0.0,0.01,0.0,0.0,0.0,0.01,-4.28210639954,-0.377302348614,-8.5632019043,0.01,0.0,0.0,0.0,0.01,0.0,0.0,0.0,0.01
1585296393298051989,8570,1585296393295020036,foot_imu_link,-0.0927102044225,-0.20996786654,-0.469730347395,0.852450489998,0.0,0.0,0.0,0.0,0.0,0.0,0.0,0.0,0.0,0.00348105002195,-0.00304511096328,0.0045553157106,0.01,0.0,0.0,0.0,0.01,0.0,0.0,0.0,0.01,-4.29785203934,-0.397957921028,-8.63944816589,0.01,0.0,0.0,0.0,0.01,0.0,0.0,0.0,0.01
1585296393332504927,8571,1585296393331940117,foot_imu_link,-0.0927355587482,-0.210058674216,-0.469619601965,0.852486371994,0.0,0.0,0.0,0.0,0.0,0.0,0.0,0.0,0.0,0.00369728542864,-0.00377512071282,0.0035849083215,0.01,0.0,0.0,0.0,0.01,0.0,0.0,0.0,0.01,-4.28597974777,-0.352688312531,-8.59160709381,0.01,0.0,0.0,0.0,0.01,0.0,0.0,0.0,0.01
1585296393347780890,8572,1585296393347101886,foot_imu_link,-0.0927270948887,-0.210102677345,-0.469585597515,0.852495193481,0.0,0.0,0.0,0.0,0.0,0.0,0.0,0.0,0.0,0.0067426674068,-0.0035946611315,0.00141094485298,0.01,0.0,0.0,0.0,0.01,0.0,0.0,0.0,0.01,-4.32545661926,-0.359389424324,-8.65156269073,0.01,0.0,0.0,0.0,0.01,0.0,0.0,0.0,0.01
1585296393364395075,8573,1585296393363730345,foot_imu_link,-0.0927063822746,-0.210165590048,-0.469582080841,0.852483808994,0.0,0.0,0.0,0.0,0.0,0.0,0.0,0.0,0.0,0.00899611786008,-0.00705571006984,-0.00253332639113,0.01,0.0,0.0,0.0,0.01,0.0,0.0,0.0,0.01,-4.27936649323,-0.367356956005,-8.61030578613,0.01,0.0,0.0,0.0,0.01,0.0,0.0,0.0,0.01
1585296393380792010,8574,1585296393379645975,foot_imu_link,-0.09262945503,-0.21030664444,-0.469602286816,0.852446317673,0.0,0.0,0.0,0.0,0.0,0.0,0.0,0.0,0.0,0.02007147111,-0.0125852031633,-0.0103249289095,0.01,0.0,0.0,0.0,0.01,0.0,0.0,0.0,0.01,-4.28194236755,-0.309164941311,-8.63052654266,0.01,0.0,0.0,0.0,0.01,0.0,0.0,0.0,0.01
1585296393396164348,8575,1585296393394951365,foot_imu_link,-0.0925080701709,-0.210495635867,-0.46963685751,0.852393805981,0.0,0.0,0.0,0.0,0.0,0.0,0.0,0.0,0.0,0.0273477211595,-0.0165256410837,-0.0153173711151,0.01,0.0,0.0,0.0,0.01,0.0,0.0,0.0,0.01,-4.27259969711,-0.384463012218,-8.57736587524,0.01,0.0,0.0,0.0,0.01,0.0,0.0,0.0,0.01
1585296393412598665,8576,1585296393410711630,foot_imu_link,-0.0923511087894,-0.210757434368,-0.469702839851,0.852309703827,0.0,0.0,0.0,0.0,0.0,0.0,0.0,0.0,0.0,0.0386663600802,-0.0224997196347,-0.021149141714,0.01,0.0,0.0,0.0,0.01,0.0,0.0,0.0,0.01,-4.29886293411,-0.36468192935,-8.62271213531,0.01,0.0,0.0,0.0,0.01,0.0,0.0,0.0,0.01
1585296393432521856,8577,1585296393431863888,foot_imu_link,-0.0920726284385,-0.211210474372,-0.469778001308,0.852186322212,0.0,0.0,0.0,0.0,0.0,0.0,0.0,0.0,0.0,0.0464262887836,-0.0288919638842,-0.0226464886218,0.01,0.0,0.0,0.0,0.01,0.0,0.0,0.0,0.01,-4.28066015244,-0.38950496912,-8.58893966675,0.01,0.0,0.0,0.0,0.01,0.0,0.0,0.0,0.01
1585296393447906692,8578,1585296393447142443,foot_imu_link,-0.0918372496963,-0.211580961943,-0.469834029675,0.852088928223,0.0,0.0,0.0,0.0,0.0,0.0,0.0,0.0,0.0,0.0477213934064,-0.0278715025634,-0.0221715681255,0.01,0.0,0.0,0.0,0.01,0.0,0.0,0.0,0.01,-4.30421638489,-0.430676579475,-8.59944152832,0.01,0.0,0.0,0.0,0.01,0.0,0.0,0.0,0.01
1585296393464492599,8579,1585296393463926275,foot_imu_link,-0.0915807783604,-0.211950480938,-0.469883710146,0.851997256279,0.0,0.0,0.0,0.0,0.0,0.0,0.0,0.0,0.0,0.0514441914856,-0.0263354517519,-0.0226442553103,0.01,0.0,0.0,0.0,0.01,0.0,0.0,0.0,0.01,-4.31415987015,-0.413515985012,-8.5944519043,0.01,0.0,0.0,0.0,0.01,0.0,0.0,0.0,0.01
1585296393495726295,8580,1585296393494713606,foot_imu_link,-0.0909867361188,-0.21282543242,-0.469971954823,0.85179412365,0.0,0.0,0.0,0.0,0.0,0.0,0.0,0.0,0.0,0.0480987951159,-0.0270531531423,-0.0191176459193,0.01,0.0,0.0,0.0,0.01,0.0,0.0,0.0,0.01,-4.31657409668,-0.450198322535,-8.58069992065,0.01,0.0,0.0,0.0,0.01,0.0,0.0,0.0,0.01
1585296393511129722,8581,1585296393510529360,foot_imu_link,-0.0907504484057,-0.213168501854,-0.469999760389,0.851718127728,0.0,0.0,0.0,0.0,0.0,0.0,0.0,0.0,0.0,0.0452906787395,-0.0251625012606,-0.0174083262682,0.01,0.0,0.0,0.0,0.01,0.0,0.0,0.0,0.01,-4.29657077789,-0.460998356342,-8.59863471985,0.01,0.0,0.0,0.0,0.01,0.0,0.0,0.0,0.01
1585296393547776717,8582,1585296393547019133,foot_imu_link,-0.0902620330453,-0.213909178972,-0.470010995865,0.851578176022,0.0,0.0,0.0,0.0,0.0,0.0,0.0,0.0,0.0,0.0404972359538,-0.0239556841552,-0.012634633109,0.01,0.0,0.0,0.0,0.01,0.0,0.0,0.0,0.01,-4.32425928116,-0.507360219955,-8.60008716583,0.01,0.0,0.0,0.0,0.01,0.0,0.0,0.0,0.01
1585296393563022095,8583,1585296393562372229,foot_imu_link,-0.0900761410594,-0.214204788208,-0.470019906759,0.851518630981,0.0,0.0,0.0,0.0,0.0,0.0,0.0,0.0,0.0,0.0376226380467,-0.0257065203041,-0.0101274233311,0.01,0.0,0.0,0.0,0.01,0.0,0.0,0.0,0.01,-4.30422210693,-0.495434045792,-8.60080623627,0.01,0.0,0.0,0.0,0.01,0.0,0.0,0.0,0.01
1585296393579349580,8584,1585296393578762627,foot_imu_link,-0.0898991003633,-0.214488521218,-0.470021426678,0.85146510601,0.0,0.0,0.0,0.0,0.0,0.0,0.0,0.0,0.0,0.0380180627108,-0.0196719542146,-0.00950615014881,0.01,0.0,0.0,0.0,0.01,0.0,0.0,0.0,0.01,-4.38334369659,-0.471763551235,-8.61139202118,0.01,0.0,0.0,0.0,0.01,0.0,0.0,0.0,0.01
1585296393595232165,8585,1585296393594643809,foot_imu_link,-0.089663669467,-0.214801087976,-0.470022290945,0.851410627365,0.0,0.0,0.0,0.0,0.0,0.0,0.0,0.0,0.0,0.0341999679804,-0.0147057641298,-0.00911070406437,0.01,0.0,0.0,0.0,0.01,0.0,0.0,0.0,0.01,-4.29824256897,-0.462870419025,-8.60352134705,0.01,0.0,0.0,0.0,0.01,0.0,0.0,0.0,0.01
1585296393610550608,8586,1585296393609826746,foot_imu_link,-0.0894951820374,-0.215038463473,-0.470026105642,0.851366221905,0.0,0.0,0.0,0.0,0.0,0.0,0.0,0.0,0.0,0.0305725038052,-0.0189857147634,-0.00851019565016,0.01,0.0,0.0,0.0,0.01,0.0,0.0,0.0,0.01,-4.36001062393,-0.495451331139,-8.56665706635,0.01,0.0,0.0,0.0,0.01,0.0,0.0,0.0,0.01
1585296393625560869,8587,1585296393625047817,foot_imu_link,-0.0893338322639,-0.215269610286,-0.470024138689,0.851325929165,0.0,0.0,0.0,0.0,0.0,0.0,0.0,0.0,0.0,0.0338715724647,-0.0188459567726,-0.0104908701032,0.01,0.0,0.0,0.0,0.01,0.0,0.0,0.0,0.01,-4.32117366791,-0.482531070709,-8.61504077911,0.01,0.0,0.0,0.0,0.01,0.0,0.0,0.0,0.01
1585296393648056265,8588,1585296393646613773,foot_imu_link,-0.0890937969089,-0.215607851744,-0.470016211271,0.851269841194,0.0,0.0,0.0,0.0,0.0,0.0,0.0,0.0,0.0,0.0352465137839,-0.0209624264389,-0.00760447559878,0.01,0.0,0.0,0.0,0.01,0.0,0.0,0.0,0.01,-4.33814334869,-0.514220237732,-8.53875923157,0.01,0.0,0.0,0.0,0.01,0.0,0.0,0.0,0.01
1585296393662795777,8589,1585296393662064631,foot_imu_link,-0.0889263451099,-0.215891316533,-0.470007717609,0.851220190525,0.0,0.0,0.0,0.0,0.0,0.0,0.0,0.0,0.0,0.0389030575752,-0.025129981339,-0.00942069850862,0.01,0.0,0.0,0.0,0.01,0.0,0.0,0.0,0.01,-4.35522794724,-0.479617029428,-8.56903266907,0.01,0.0,0.0,0.0,0.01,0.0,0.0,0.0,0.01
1585296393678068561,8590,1585296393677158087,foot_imu_link,-0.0887414738536,-0.216191455722,-0.469996005297,0.8511698246,0.0,0.0,0.0,0.0,0.0,0.0,0.0,0.0,0.0,0.040483802557,-0.0271808672696,-0.00784676335752,0.01,0.0,0.0,0.0,0.01,0.0,0.0,0.0,0.01,-4.34151649475,-0.554326891899,-8.60165309906,0.01,0.0,0.0,0.0,0.01,0.0,0.0,0.0,0.01
1585296393686499739,8591,1585296393685899245,foot_imu_link,-0.0886346250772,-0.216401875019,-0.469980686903,0.851135909557,0.0,0.0,0.0,0.0,0.0,0.0,0.0,0.0,0.0,0.0365785062313,-0.0255739986897,-0.00593286333606,0.01,0.0,0.0,0.0,0.01,0.0,0.0,0.0,0.01,-4.37560653687,-0.518870413303,-8.55178165436,0.01,0.0,0.0,0.0,0.01,0.0,0.0,0.0,0.01
1585296393710648870,8592,1585296393709788075,foot_imu_link,-0.0884118825197,-0.216816350818,-0.469951957464,0.851069450378,0.0,0.0,0.0,0.0,0.0,0.0,0.0,0.0,0.0,0.0273558292538,-0.0152045115829,-0.00318987830542,0.01,0.0,0.0,0.0,0.01,0.0,0.0,0.0,0.01,-4.38702011108,-0.53449511528,-8.56118869781,0.01,0.0,0.0,0.0,0.01,0.0,0.0,0.0,0.01
1585296393725716416,8593,1585296393724845524,foot_imu_link,-0.0883088111877,-0.216981127858,-0.469941914082,0.851043701172,0.0,0.0,0.0,0.0,0.0,0.0,0.0,0.0,0.0,0.0199110731483,-0.00678184395656,-0.000351610127836,0.01,0.0,0.0,0.0,0.01,0.0,0.0,0.0,0.01,-4.37870597839,-0.551634669304,-8.57936763763,0.01,0.0,0.0,0.0,0.01,0.0,0.0,0.0,0.01
1585296393763705751,8594,1585296393761762280,foot_imu_link,-0.0881524533033,-0.217216894031,-0.469906806946,0.851019203663,0.0,0.0,0.0,0.0,0.0,0.0,0.0,0.0,0.0,0.0152696147561,-0.00609976891428,-0.003132811049,0.01,0.0,0.0,0.0,0.01,0.0,0.0,0.0,0.01,-4.36861419678,-0.490450084209,-8.60347652435,0.01,0.0,0.0,0.0,0.01,0.0,0.0,0.0,0.01
1585296393777728488,8595,1585296393776935783,foot_imu_link,-0.0880892723799,-0.217310145497,-0.469906657934,0.851001977921,0.0,0.0,0.0,0.0,0.0,0.0,0.0,0.0,0.0,0.0115677909926,-0.00513646891341,-0.00198106653988,0.01,0.0,0.0,0.0,0.01,0.0,0.0,0.0,0.01,-4.38004493713,-0.549778103828,-8.57680892944,0.01,0.0,0.0,0.0,0.01,0.0,0.0,0.0,0.01
1585296393794916398,8596,1585296393793749521,foot_imu_link,-0.0880439057946,-0.217383772135,-0.469916492701,0.850982427597,0.0,0.0,0.0,0.0,0.0,0.0,0.0,0.0,0.0,0.00982413068414,-0.00437126681209,-0.00170574197546,0.01,0.0,0.0,0.0,0.01,0.0,0.0,0.0,0.01,-4.38542509079,-0.53741568327,-8.58767986298,0.01,0.0,0.0,0.0,0.01,0.0,0.0,0.0,0.01
1585296393810506763,8597,1585296393809577521,foot_imu_link,-0.08799623698,-0.217466756701,-0.469931513071,0.850957870483,0.0,0.0,0.0,0.0,0.0,0.0,0.0,0.0,0.0,0.00777414441109,-0.00493477052078,-0.00161940883845,0.01,0.0,0.0,0.0,0.01,0.0,0.0,0.0,0.01,-4.38858699799,-0.544364750385,-8.55017185211,0.01,0.0,0.0,0.0,0.01,0.0,0.0,0.0,0.01
1585296393825405694,8598,1585296393824625020,foot_imu_link,-0.0879662334919,-0.217513680458,-0.469947248697,0.850940287113,0.0,0.0,0.0,0.0,0.0,0.0,0.0,0.0,0.0,0.00585313560441,-0.00482586538419,0.000816559884697,0.01,0.0,0.0,0.0,0.01,0.0,0.0,0.0,0.01,-4.37045383453,-0.541420042515,-8.59629058838,0.01,0.0,0.0,0.0,0.01,0.0,0.0,0.0,0.01
1585296393840892895,8599,1585296393840203842,foot_imu_link,-0.0879369229078,-0.2175578475,-0.469955056906,0.850927710533,0.0,0.0,0.0,0.0,0.0,0.0,0.0,0.0,0.0,0.00650739111006,-0.00687701813877,0.000399764627218,0.01,0.0,0.0,0.0,0.01,0.0,0.0,0.0,0.01,-4.34471607208,-0.533771514893,-8.61181735992,0.01,0.0,0.0,0.0,0.01,0.0,0.0,0.0,0.01
1585296393862490330,8600,1585296393861756111,foot_imu_link,-0.0878898128867,-0.217616140842,-0.469938546419,0.850926816463,0.0,0.0,0.0,0.0,0.0,0.0,0.0,0.0,0.0,0.00588785205036,-0.00442405417562,0.000771175604314,0.01,0.0,0.0,0.0,0.01,0.0,0.0,0.0,0.01,-4.35908079147,-0.513402581215,-8.57996463776,0.01,0.0,0.0,0.0,0.01,0.0,0.0,0.0,0.01
1585296393878054203,8601,1585296393876761170,foot_imu_link,-0.0878731757402,-0.217656448483,-0.469929248095,0.850923359394,0.0,0.0,0.0,0.0,0.0,0.0,0.0,0.0,0.0,0.00531428214163,-0.00245744502172,0.00126933911815,0.01,0.0,0.0,0.0,0.01,0.0,0.0,0.0,0.01,-4.38390016556,-0.548987209797,-8.56356048584,0.01,0.0,0.0,0.0,0.01,0.0,0.0,0.0,0.01
1585296393892801945,8602,1585296393892184596,foot_imu_link,-0.0878370031714,-0.217702940106,-0.469918042421,0.850921392441,0.0,0.0,0.0,0.0,0.0,0.0,0.0,0.0,0.0,0.0069630779326,-0.00430892733857,0.000388127285987,0.01,0.0,0.0,0.0,0.01,0.0,0.0,0.0,0.01,-4.34599542618,-0.542229056358,-8.56215190887,0.01,0.0,0.0,0.0,0.01,0.0,0.0,0.0,0.01
1585296393909998763,8603,1585296393908740355,foot_imu_link,-0.0878061875701,-0.217751145363,-0.469901949167,0.850921154022,0.0,0.0,0.0,0.0,0.0,0.0,0.0,0.0,0.0,0.00539215607569,-0.00564418593422,0.00319929653779,0.01,0.0,0.0,0.0,0.01,0.0,0.0,0.0,0.01,-4.37329053879,-0.541276216507,-8.56525325775,0.01,0.0,0.0,0.0,0.01,0.0,0.0,0.0,0.01
1585296393925570633,8604,1585296393924843179,foot_imu_link,-0.0877843424678,-0.217820048332,-0.46989890933,0.850907444954,0.0,0.0,0.0,0.0,0.0,0.0,0.0,0.0,0.0,0.00741632468998,-0.00771945388988,0.000964934937656,0.01,0.0,0.0,0.0,0.01,0.0,0.0,0.0,0.01,-4.34194374084,-0.566667735577,-8.58465003967,0.01,0.0,0.0,0.0,0.01,0.0,0.0,0.0,0.01
1585296393940601652,8605,1585296393939953495,foot_imu_link,-0.0877576991916,-0.217893108726,-0.469890207052,0.850896239281,0.0,0.0,0.0,0.0,0.0,0.0,0.0,0.0,0.0,0.00714733917266,-0.0118986377493,0.00143004348502,0.01,0.0,0.0,0.0,0.01,0.0,0.0,0.0,0.01,-4.39445781708,-0.537365138531,-8.55958747864,0.01,0.0,0.0,0.0,0.01,0.0,0.0,0.0,0.01
1585296393978704814,8606,1585296393976682179,foot_imu_link,-0.0876982659101,-0.218094661832,-0.469837516546,0.850879848003,0.0,0.0,0.0,0.0,0.0,0.0,0.0,0.0,0.0,0.0112921763211,-0.00975477043539,0.00160054955631,0.01,0.0,0.0,0.0,0.01,0.0,0.0,0.0,0.01,-4.36888408661,-0.514037907124,-8.56824874878,0.01,0.0,0.0,0.0,0.01,0.0,0.0,0.0,0.01
1585296393992556047,8607,1585296393991928785,foot_imu_link,-0.087656840682,-0.218189880252,-0.46980035305,0.850880205631,0.0,0.0,0.0,0.0,0.0,0.0,0.0,0.0,0.0,0.0119435489178,-0.00705227348953,0.0018108789809,0.01,0.0,0.0,0.0,0.01,0.0,0.0,0.0,0.01,-4.40506887436,-0.537798643112,-8.52705383301,0.01,0.0,0.0,0.0,0.01,0.0,0.0,0.0,0.01
1585296394009591117,8608,1585296394008551080,foot_imu_link,-0.087625734508,-0.218300744891,-0.469777196646,0.85086774826,0.0,0.0,0.0,0.0,0.0,0.0,0.0,0.0,0.0,0.0141731481999,-0.00939067173749,-0.000635979231447,0.01,0.0,0.0,0.0,0.01,0.0,0.0,0.0,0.01,-4.36153936386,-0.513538122177,-8.58427619934,0.01,0.0,0.0,0.0,0.01,0.0,0.0,0.0,0.01
1585296394025070614,8609,1585296394024427135,foot_imu_link,-0.0875366032124,-0.218426257372,-0.469759196043,0.850854635239,0.0,0.0,0.0,0.0,0.0,0.0,0.0,0.0,0.0,0.0138069018722,-0.00857828557491,-0.0016277814284,0.01,0.0,0.0,0.0,0.01,0.0,0.0,0.0,0.01,-4.39395523071,-0.502363085747,-8.59080791473,0.01,0.0,0.0,0.0,0.01,0.0,0.0,0.0,0.01
1585296394040604457,8610,1585296394039649643,foot_imu_link,-0.0874893888831,-0.218525409698,-0.469764351845,0.850831270218,0.0,0.0,0.0,0.0,0.0,0.0,0.0,0.0,0.0,0.0133378012106,-0.00726628303528,-0.0036225260701,0.01,0.0,0.0,0.0,0.01,0.0,0.0,0.0,0.01,-4.3821144104,-0.542346894741,-8.57024669647,0.01,0.0,0.0,0.0,0.01,0.0,0.0,0.0,0.01
1585296394055465727,8611,1585296394054942108,foot_imu_link,-0.0874233841896,-0.21862231195,-0.469772547483,0.850808501244,0.0,0.0,0.0,0.0,0.0,0.0,0.0,0.0,0.0,0.0145651418716,-0.00705050863326,-0.00435998570174,0.01,0.0,0.0,0.0,0.01,0.0,0.0,0.0,0.01,-4.41180038452,-0.569721877575,-8.58548736572,0.01,0.0,0.0,0.0,0.01,0.0,0.0,0.0,0.01
1585296394078468251,8612,1585296394076476918,foot_imu_link,-0.0873241424561,-0.218769669533,-0.46977058053,0.850781977177,0.0,0.0,0.0,0.0,0.0,0.0,0.0,0.0,0.0,0.0178464651108,-0.00764686148614,-0.00418156292289,0.01,0.0,0.0,0.0,0.01,0.0,0.0,0.0,0.01,-4.39863061905,-0.539513349533,-8.57933807373,0.01,0.0,0.0,0.0,0.01,0.0,0.0,0.0,0.01
1585296394092569134,8613,1585296394091788470,foot_imu_link,-0.0872368440032,-0.218886181712,-0.469791769981,0.850749254227,0.0,0.0,0.0,0.0,0.0,0.0,0.0,0.0,0.0,0.0186184570193,-0.00541253015399,-0.00675912899897,0.01,0.0,0.0,0.0,0.01,0.0,0.0,0.0,0.01,-4.37923574448,-0.56511592865,-8.55595970154,0.01,0.0,0.0,0.0,0.01,0.0,0.0,0.0,0.01
1585296394107796987,8614,1585296394106954353,foot_imu_link,-0.0871255919337,-0.219001531601,-0.469815671444,0.850717842579,0.0,0.0,0.0,0.0,0.0,0.0,0.0,0.0,0.0,0.0191005952656,-0.00578187266365,-0.00792105030268,0.01,0.0,0.0,0.0,0.01,0.0,0.0,0.0,0.01,-4.35434246063,-0.635019779205,-8.53630924225,0.01,0.0,0.0,0.0,0.01,0.0,0.0,0.0,0.01
1585296394123963885,8615,1585296394123556691,foot_imu_link,-0.0870017409325,-0.219097822905,-0.469844073057,0.850689947605,0.0,0.0,0.0,0.0,0.0,0.0,0.0,0.0,0.0,0.0197663735598,-0.0033678447362,-0.00690846005455,0.01,0.0,0.0,0.0,0.01,0.0,0.0,0.0,0.01,-4.38137674332,-0.603254973888,-8.60809516907,0.01,0.0,0.0,0.0,0.01,0.0,0.0,0.0,0.01
1585296394140150417,8616,1585296394139465780,foot_imu_link,-0.0868609845638,-0.219235733151,-0.46987336874,0.850652635098,0.0,0.0,0.0,0.0,0.0,0.0,0.0,0.0,0.0,0.0171002224088,-0.00758681260049,-0.00514456629753,0.01,0.0,0.0,0.0,0.01,0.0,0.0,0.0,0.01,-4.36302661896,-0.608290731907,-8.53560733795,0.01,0.0,0.0,0.0,0.01,0.0,0.0,0.0,0.01
1585296394155585574,8617,1585296394154714480,foot_imu_link,-0.0867811590433,-0.219344124198,-0.46989184618,0.850622653961,0.0,0.0,0.0,0.0,0.0,0.0,0.0,0.0,0.0,0.0161624997854,-0.00869422592223,-0.0041842488572,0.01,0.0,0.0,0.0,0.01,0.0,0.0,0.0,0.01,-4.3623547554,-0.583994984627,-8.53374767303,0.01,0.0,0.0,0.0,0.01,0.0,0.0,0.0,0.01
1585296394162448938,8618,1585296394161885452,foot_imu_link,-0.0867392495275,-0.219431579113,-0.469896793365,0.850601613522,0.0,0.0,0.0,0.0,0.0,0.0,0.0,0.0,0.0,0.0144435372204,-0.0128254825249,-0.00269551482052,0.01,0.0,0.0,0.0,0.01,0.0,0.0,0.0,0.01,-4.36603164673,-0.569287776947,-8.53226280212,0.01,0.0,0.0,0.0,0.01,0.0,0.0,0.0,0.01
1585296394193043101,8619,1585296394191510492,foot_imu_link,-0.0866746157408,-0.219600185752,-0.469875812531,0.850576281548,0.0,0.0,0.0,0.0,0.0,0.0,0.0,0.0,0.0,0.0092360842973,-0.00808961875737,0.00094130076468,0.01,0.0,0.0,0.0,0.01,0.0,0.0,0.0,0.01,-4.39698314667,-0.556164443493,-8.55850124359,0.01,0.0,0.0,0.0,0.01,0.0,0.0,0.0,0.01
1585296394208131760,8620,1585296394206612397,foot_imu_link,-0.0866553708911,-0.219682693481,-0.469859927893,0.850565731525,0.0,0.0,0.0,0.0,0.0,0.0,0.0,0.0,0.0,0.00817928649485,-0.0042389347218,0.00205511413515,0.01,0.0,0.0,0.0,0.01,0.0,0.0,0.0,0.01,-4.41974163055,-0.592259347439,-8.5509262085,0.01,0.0,0.0,0.0,0.01,0.0,0.0,0.0,0.01
1585296394225642294,8621,1585296394223664664,foot_imu_link,-0.0866397470236,-0.219736382365,-0.469842195511,0.85056322813,0.0,0.0,0.0,0.0,0.0,0.0,0.0,0.0,0.0,0.00617099134251,-0.00535299675539,0.00177084933966,0.01,0.0,0.0,0.0,0.01,0.0,0.0,0.0,0.01,-4.36676549911,-0.564485430717,-8.52957344055,0.01,0.0,0.0,0.0,0.01,0.0,0.0,0.0,0.01
1585296394241222595,8622,1585296394240149847,foot_imu_link,-0.0866588354111,-0.219798192382,-0.469815373421,0.850560188293,0.0,0.0,0.0,0.0,0.0,0.0,0.0,0.0,0.0,0.00243914220482,-0.00174136669375,0.00646071648225,0.01,0.0,0.0,0.0,0.01,0.0,0.0,0.0,0.01,-4.3711848259,-0.604682922363,-8.55254554749,0.01,0.0,0.0,0.0,0.01,0.0,0.0,0.0,0.01
1585296394256287855,8623,1585296394254872993,foot_imu_link,-0.0866447761655,-0.219822064042,-0.469769537449,0.850580751896,0.0,0.0,0.0,0.0,0.0,0.0,0.0,0.0,0.0,0.00806888565421,-0.00571737345308,0.0051007559523,0.01,0.0,0.0,0.0,0.01,0.0,0.0,0.0,0.01,-4.39857435226,-0.531542539597,-8.58137607574,0.01,0.0,0.0,0.0,0.01,0.0,0.0,0.0,0.01
1585296394270841586,8624,1585296394270214655,foot_imu_link,-0.0866488218307,-0.219902664423,-0.469752341509,0.850568950176,0.0,0.0,0.0,0.0,0.0,0.0,0.0,0.0,0.0,0.00719917239621,-0.00694222329184,0.000314291100949,0.01,0.0,0.0,0.0,0.01,0.0,0.0,0.0,0.01,-4.39485216141,-0.566743731499,-8.5536699295,0.01,0.0,0.0,0.0,0.01,0.0,0.0,0.0,0.01
1585296394292057790,8625,1585296394291374500,foot_imu_link,-0.0866227820516,-0.219965174794,-0.469721734524,0.850572347641,0.0,0.0,0.0,0.0,0.0,0.0,0.0,0.0,0.0,0.00533271860331,-0.00488177314401,0.00359469978139,0.01,0.0,0.0,0.0,0.01,0.0,0.0,0.0,0.01,-4.35919809341,-0.624043107033,-8.51884078979,0.01,0.0,0.0,0.0,0.01,0.0,0.0,0.0,0.01
1585296394307629871,8626,1585296394306933180,foot_imu_link,-0.0865869745612,-0.220007881522,-0.469691157341,0.850581884384,0.0,0.0,0.0,0.0,0.0,0.0,0.0,0.0,0.0,0.00712016038597,-0.00071464170469,0.00396302249283,0.01,0.0,0.0,0.0,0.01,0.0,0.0,0.0,0.01,-4.40283823013,-0.549006700516,-8.57820606232,0.01,0.0,0.0,0.0,0.01,0.0,0.0,0.0,0.01
1585296394323011947,8627,1585296394321776865,foot_imu_link,-0.0865629017353,-0.220042094588,-0.469666242599,0.850589215755,0.0,0.0,0.0,0.0,0.0,0.0,0.0,0.0,0.0,0.00569419143721,-0.00474619446322,0.00316819455475,0.01,0.0,0.0,0.0,0.01,0.0,0.0,0.0,0.01,-4.38437700272,-0.596278071404,-8.55900478363,0.01,0.0,0.0,0.0,0.01,0.0,0.0,0.0,0.01
1585296394338999121,8628,1585296394338448724,foot_imu_link,-0.0865582600236,-0.220113322139,-0.469658821821,0.850575387478,0.0,0.0,0.0,0.0,0.0,0.0,0.0,0.0,0.0,0.00896775349975,-0.00766241783276,0.000527802854776,0.01,0.0,0.0,0.0,0.01,0.0,0.0,0.0,0.01,-4.41817188263,-0.549150586128,-8.56732368469,0.01,0.0,0.0,0.0,0.01,0.0,0.0,0.0,0.01
1585296394356164230,8629,1585296394354817199,foot_imu_link,-0.0865265876055,-0.22020329535,-0.469635158777,0.85056835413,0.0,0.0,0.0,0.0,0.0,0.0,0.0,0.0,0.0,0.00643440242857,-0.0043400391005,0.00133177917451,0.01,0.0,0.0,0.0,0.01,0.0,0.0,0.0,0.01,-4.43268108368,-0.588456392288,-8.57515907288,0.01,0.0,0.0,0.0,0.01,0.0,0.0,0.0,0.01
1585296394370363469,8630,1585296394369538855,foot_imu_link,-0.0865090340376,-0.220248430967,-0.469633817673,0.850559234619,0.0,0.0,0.0,0.0,0.0,0.0,0.0,0.0,0.0,0.00513630127534,-0.0042765988037,0.00117060588673,0.01,0.0,0.0,0.0,0.01,0.0,0.0,0.0,0.01,-4.38178634644,-0.614280104637,-8.57998275757,0.01,0.0,0.0,0.0,0.01,0.0,0.0,0.0,0.01
1585296394385461572,8631,1585296394384688771,foot_imu_link,-0.0864950194955,-0.220281362534,-0.469615995884,0.850561916828,0.0,0.0,0.0,0.0,0.0,0.0,0.0,0.0,0.0,0.0031977975741,-0.00141570228152,0.00174914253876,0.01,0.0,0.0,0.0,0.01,0.0,0.0,0.0,0.01,-4.40473508835,-0.608801484108,-8.54548072815,0.01,0.0,0.0,0.0,0.01,0.0,0.0,0.0,0.01
1585296394407891802,8632,1585296394406642543,foot_imu_link,-0.0864822566509,-0.220301255584,-0.469594120979,0.850570142269,0.0,0.0,0.0,0.0,0.0,0.0,0.0,0.0,0.0,-0.00023696757853,0.000882956315763,0.00133850658312,0.01,0.0,0.0,0.0,0.01,0.0,0.0,0.0,0.01,-4.45009326935,-0.597589075565,-8.52240943909,0.01,0.0,0.0,0.0,0.01,0.0,0.0,0.0,0.01
1585296394422221747,8633,1585296394421658114,foot_imu_link,-0.0864859446883,-0.22029414773,-0.469588130713,0.850574970245,0.0,0.0,0.0,0.0,0.0,0.0,0.0,0.0,0.0,0.000898180529475,0.00146579567809,0.00292443903163,0.01,0.0,0.0,0.0,0.01,0.0,0.0,0.0,0.01,-4.40327882767,-0.551699519157,-8.57462120056,0.01,0.0,0.0,0.0,0.01,0.0,0.0,0.0,0.01
1585296394439012273,8634,1585296394438389568,foot_imu_link,-0.0864895060658,-0.22028285265,-0.469592392445,0.850575149059,0.0,0.0,0.0,0.0,0.0,0.0,0.0,0.0,0.0,0.00031288806349,0.00181341450661,0.00242349458858,0.01,0.0,0.0,0.0,0.01,0.0,0.0,0.0,0.01,-4.38786125183,-0.5589594841,-8.56672286987,0.01,0.0,0.0,0.0,0.01,0.0,0.0,0.0,0.01
1585296394455290723,8635,1585296394454524168,foot_imu_link,-0.0864882096648,-0.220264613628,-0.469608068466,0.850571334362,0.0,0.0,0.0,0.0,0.0,0.0,0.0,0.0,0.0,-0.00106338784099,0.00537408795208,-0.000599623192102,0.01,0.0,0.0,0.0,0.01,0.0,0.0,0.0,0.01,-4.39294576645,-0.573766469955,-8.58896541595,0.01,0.0,0.0,0.0,0.01,0.0,0.0,0.0,0.01
1585296394471323820,8636,1585296394469612581,foot_imu_link,-0.0864907056093,-0.220230996609,-0.469620734453,0.850572824478,0.0,0.0,0.0,0.0,0.0,0.0,0.0,0.0,0.0,-0.00326408818364,0.00418680626899,0.000102745369077,0.01,0.0,0.0,0.0,0.01,0.0,0.0,0.0,0.01,-4.39479255676,-0.598555803299,-8.54807662964,0.01,0.0,0.0,0.0,0.01,0.0,0.0,0.0,0.01
1585296394486243575,8637,1585296394484682645,foot_imu_link,-0.086492151022,-0.220178067684,-0.469634711742,0.850578665733,0.0,0.0,0.0,0.0,0.0,0.0,0.0,0.0,0.0,-0.00300214532763,0.00682794395834,0.00215889047831,0.01,0.0,0.0,0.0,0.01,0.0,0.0,0.0,0.01,-4.37872409821,-0.556027829647,-8.53515815735,0.01,0.0,0.0,0.0,0.01,0.0,0.0,0.0,0.01
1585296394507103657,8638,1585296394506439232,foot_imu_link,-0.0865002572536,-0.220118105412,-0.469643712044,0.850588262081,0.0,0.0,0.0,0.0,0.0,0.0,0.0,0.0,0.0,-0.00577992014587,0.00197261502035,0.00179713126272,0.01,0.0,0.0,0.0,0.01,0.0,0.0,0.0,0.01,-4.39013528824,-0.601583778858,-8.58218574524,0.01,0.0,0.0,0.0,0.01,0.0,0.0,0.0,0.01
1585296394522373859,8639,1585296394521690178,foot_imu_link,-0.0865246653557,-0.220062479377,-0.469639897346,0.850602388382,0.0,0.0,0.0,0.0,0.0,0.0,0.0,0.0,0.0,-0.00578041840345,0.00541638629511,0.00307928491384,0.01,0.0,0.0,0.0,0.01,0.0,0.0,0.0,0.01,-4.39947223663,-0.561001420021,-8.56639671326,0.01,0.0,0.0,0.0,0.01,0.0,0.0,0.0,0.01
1585296394539040455,8640,1585296394536785410,foot_imu_link,-0.0865434333682,-0.219995304942,-0.469645142555,0.850614964962,0.0,0.0,0.0,0.0,0.0,0.0,0.0,0.0,0.0,-0.00650862697512,0.00827673729509,0.00115500297397,0.01,0.0,0.0,0.0,0.01,0.0,0.0,0.0,0.01,-4.39703702927,-0.581946492195,-8.54323768616,0.01,0.0,0.0,0.0,0.01,0.0,0.0,0.0,0.01
1585296394553986672,8641,1585296394553352763,foot_imu_link,-0.0865604057908,-0.219929933548,-0.469661325216,0.85062122345,0.0,0.0,0.0,0.0,0.0,0.0,0.0,0.0,0.0,-0.00579226575792,0.00684028444812,0.00186141952872,0.01,0.0,0.0,0.0,0.01,0.0,0.0,0.0,0.01,-4.34746932983,-0.565606713295,-8.50056171417,0.01,0.0,0.0,0.0,0.01,0.0,0.0,0.0,0.01
1585296394570149463,8642,1585296394569395883,foot_imu_link,-0.0866019204259,-0.219826802611,-0.469683617353,0.850631296635,0.0,0.0,0.0,0.0,0.0,0.0,0.0,0.0,0.0,-0.00891185551882,0.00783177930862,0.00245531182736,0.01,0.0,0.0,0.0,0.01,0.0,0.0,0.0,0.01,-4.33950424194,-0.505097210407,-8.56709098816,0.01,0.0,0.0,0.0,0.01,0.0,0.0,0.0,0.01
1585296394585490916,8643,1585296394584748160,foot_imu_link,-0.0866343900561,-0.219755724072,-0.469692677259,0.850641429424,0.0,0.0,0.0,0.0,0.0,0.0,0.0,0.0,0.0,-0.00961112324148,0.00733132148162,0.00391869293526,0.01,0.0,0.0,0.0,0.01,0.0,0.0,0.0,0.01,-4.37906551361,-0.588465571404,-8.52737140656,0.01,0.0,0.0,0.0,0.01,0.0,0.0,0.0,0.01
1585296394601149114,8644,1585296394599773716,foot_imu_link,-0.0866737738252,-0.219687476754,-0.469711661339,0.850644469261,0.0,0.0,0.0,0.0,0.0,0.0,0.0,0.0,0.0,-0.00566019490361,0.00534051051363,0.00252636522055,0.01,0.0,0.0,0.0,0.01,0.0,0.0,0.0,0.01,-4.39385652542,-0.564920246601,-8.55117607117,0.01,0.0,0.0,0.0,0.01,0.0,0.0,0.0,0.01
1585296394622125447,8645,1585296394621503060,foot_imu_link,-0.0866962894797,-0.219612210989,-0.469722986221,0.850655436516,0.0,0.0,0.0,0.0,0.0,0.0,0.0,0.0,0.0,-0.00372416432947,0.00580921210349,0.00107013527304,0.01,0.0,0.0,0.0,0.01,0.0,0.0,0.0,0.01,-4.42633628845,-0.574882149696,-8.54382228851,0.01,0.0,0.0,0.0,0.01,0.0,0.0,0.0,0.01
1585296394637087645,8646,1585296394636520369,foot_imu_link,-0.0867073535919,-0.21957346797,-0.469747185707,0.850650906563,0.0,0.0,0.0,0.0,0.0,0.0,0.0,0.0,0.0,-0.00250626169145,0.0052018975839,0.000672094523907,0.01,0.0,0.0,0.0,0.01,0.0,0.0,0.0,0.01,-4.3934803009,-0.570955038071,-8.54809951782,0.01,0.0,0.0,0.0,0.01,0.0,0.0,0.0,0.01
1585296394653796278,8647,1585296394653150645,foot_imu_link,-0.0867119133472,-0.219531685114,-0.469767332077,0.850650131702,0.0,0.0,0.0,0.0,0.0,0.0,0.0,0.0,0.0,-0.00396727025509,0.00466987071559,0.00244362838566,0.01,0.0,0.0,0.0,0.01,0.0,0.0,0.0,0.01,-4.35557222366,-0.580960392952,-8.55187988281,0.01,0.0,0.0,0.0,0.01,0.0,0.0,0.0,0.01
1585296394685048283,8648,1585296394684382978,foot_imu_link,-0.0867364481091,-0.21940946579,-0.469782054424,0.850670993328,0.0,0.0,0.0,0.0,0.0,0.0,0.0,0.0,0.0,-0.0031906850636,0.00272334320471,0.00553738884628,0.01,0.0,0.0,0.0,0.01,0.0,0.0,0.0,0.01,-4.36427688599,-0.55278301239,-8.56103229523,0.01,0.0,0.0,0.0,0.01,0.0,0.0,0.0,0.01
1585296394700252557,8649,1585296394699764045,foot_imu_link,-0.0867595523596,-0.219366371632,-0.469767451286,0.850687861443,0.0,0.0,0.0,0.0,0.0,0.0,0.0,0.0,0.0,-0.00217755511403,0.00262570660561,0.00283225486055,0.01,0.0,0.0,0.0,0.01,0.0,0.0,0.0,0.01,-4.35103130341,-0.514017820358,-8.56251811981,0.01,0.0,0.0,0.0,0.01,0.0,0.0,0.0,0.01
1585296394721851181,8650,1585296394721248545,foot_imu_link,-0.0867784172297,-0.219329938293,-0.469776570797,0.850690245628,0.0,0.0,0.0,0.0,0.0,0.0,0.0,0.0,0.0,-0.00212452653795,0.00571932969615,0.00128804473206,0.01,0.0,0.0,0.0,0.01,0.0,0.0,0.0,0.01,-4.42119884491,-0.498487085104,-8.53984069824,0.01,0.0,0.0,0.0,0.01,0.0,0.0,0.0,0.01
1585296394737114416,8651,1585296394736376819,foot_imu_link,-0.0867771357298,-0.219281479716,-0.469790935516,0.850694894791,0.0,0.0,0.0,0.0,0.0,0.0,0.0,0.0,0.0,-0.00432542525232,0.00631624553353,0.00270940503106,0.01,0.0,0.0,0.0,0.01,0.0,0.0,0.0,0.01,-4.38504123688,-0.567474484444,-8.57008552551,0.01,0.0,0.0,0.0,0.01,0.0,0.0,0.0,0.01
1585296394752776998,8652,1585296394751637656,foot_imu_link,-0.0867823660374,-0.21921107173,-0.469803899527,0.850705385208,0.0,0.0,0.0,0.0,0.0,0.0,0.0,0.0,0.0,-0.00618132110685,0.00943968445063,0.00212281662971,0.01,0.0,0.0,0.0,0.01,0.0,0.0,0.0,0.01,-4.3842921257,-0.577059924603,-8.54565811157,0.01,0.0,0.0,0.0,0.01,0.0,0.0,0.0,0.01
1585296394769078592,8653,1585296394768435218,foot_imu_link,-0.0867853462696,-0.219119951129,-0.469821214676,0.850718975067,0.0,0.0,0.0,0.0,0.0,0.0,0.0,0.0,0.0,-0.00609744153917,0.010940566659,0.00208531087264,0.01,0.0,0.0,0.0,0.01,0.0,0.0,0.0,0.01,-4.40860080719,-0.554427266121,-8.57853412628,0.01,0.0,0.0,0.0,0.01,0.0,0.0,0.0,0.01
1585296394784650625,8654,1585296394784077858,foot_imu_link,-0.0867758765817,-0.219017252326,-0.469860047102,0.850724935532,0.0,0.0,0.0,0.0,0.0,0.0,0.0,0.0,0.0,-0.00322595611215,0.0116044813767,-0.000911372248083,0.01,0.0,0.0,0.0,0.01,0.0,0.0,0.0,0.01,-4.39367628098,-0.564191579819,-8.58133792877,0.01,0.0,0.0,0.0,0.01,0.0,0.0,0.0,0.01
1585296394800093049,8655,1585296394799377698,foot_imu_link,-0.0867552906275,-0.218943476677,-0.469878643751,0.850735783577,0.0,0.0,0.0,0.0,0.0,0.0,0.0,0.0,0.0,-0.00376524496824,0.00906677544117,-0.000603180844337,0.01,0.0,0.0,0.0,0.01,0.0,0.0,0.0,0.01,-4.37987232208,-0.606748342514,-8.58187007904,0.01,0.0,0.0,0.0,0.01,0.0,0.0,0.0,0.01
1585296394815416186,8656,1585296394814919401,foot_imu_link,-0.0867500603199,-0.218893736601,-0.469895213842,0.850739896297,0.0,0.0,0.0,0.0,0.0,0.0,0.0,0.0,0.0,-0.00247155874968,0.00325974263251,0.000581428874284,0.01,0.0,0.0,0.0,0.01,0.0,0.0,0.0,0.01,-4.38351106644,-0.572066783905,-8.57623291016,0.01,0.0,0.0,0.0,0.01,0.0,0.0,0.0,0.01
1585296394837552595,8657,1585296394836439937,foot_imu_link,-0.0867634192109,-0.218860208988,-0.469911128283,0.850738465786,0.0,0.0,0.0,0.0,0.0,0.0,0.0,0.0,0.0,-0.00259330309927,0.00126886263024,0.000249987002462,0.01,0.0,0.0,0.0,0.01,0.0,0.0,0.0,0.01,-4.36704587936,-0.565925002098,-8.56362628937,0.01,0.0,0.0,0.0,0.01,0.0,0.0,0.0,0.01
1585296394852431025,8658,1585296394851737377,foot_imu_link,-0.0867790803313,-0.21882738173,-0.469934672117,0.850732326508,0.0,0.0,0.0,0.0,0.0,0.0,0.0,0.0,0.0,-0.0034149736166,0.00256077153608,0.00146631756797,0.01,0.0,0.0,0.0,0.01,0.0,0.0,0.0,0.01,-4.37841701508,-0.585078239441,-8.56144046783,0.01,0.0,0.0,0.0,0.01,0.0,0.0,0.0,0.01
1585296394868810165,8659,1585296394868237009,foot_imu_link,-0.0868009328842,-0.218806609511,-0.46994677186,0.850728750229,0.0,0.0,0.0,0.0,0.0,0.0,0.0,0.0,0.0,-0.00235606823117,-0.00133676931728,0.00357502046973,0.01,0.0,0.0,0.0,0.01,0.0,0.0,0.0,0.01,-4.32883310318,-0.596571326256,-8.5576915741,0.01,0.0,0.0,0.0,0.01,0.0,0.0,0.0,0.01
1585296394900684776,8660,1585296394899500669,foot_imu_link,-0.0868561863899,-0.218782231212,-0.469932049513,0.850737512112,0.0,0.0,0.0,0.0,0.0,0.0,0.0,0.0,0.0,-0.00333590712398,-0.00256064464338,0.00380869675428,0.01,0.0,0.0,0.0,0.01,0.0,0.0,0.0,0.01,-4.39680624008,-0.555689096451,-8.5691280365,0.01,0.0,0.0,0.0,0.01,0.0,0.0,0.0,0.01
1585296394915094174,8661,1585296394914596601,foot_imu_link,-0.0868932530284,-0.218779221177,-0.46991160512,0.850745797157,0.0,0.0,0.0,0.0,0.0,0.0,0.0,0.0,0.0,-0.00445709936321,-0.00234776269644,0.00464620068669,0.01,0.0,0.0,0.0,0.01,0.0,0.0,0.0,0.01,-4.35739612579,-0.583587944508,-8.56516265869,0.01,0.0,0.0,0.0,0.01,0.0,0.0,0.0,0.01
1585296394937928524,8662,1585296394936072746,foot_imu_link,-0.0869661122561,-0.218770757318,-0.469910204411,0.850741267204,0.0,0.0,0.0,0.0,0.0,0.0,0.0,0.0,0.0,-0.00794625002891,-0.00429524667561,0.00758752692491,0.01,0.0,0.0,0.0,0.01,0.0,0.0,0.0,0.01,-4.37582874298,-0.574640631676,-8.56514930725,0.01,0.0,0.0,0.0,0.01,0.0,0.0,0.0,0.01
1585296394952495979,8663,1585296394951565736,foot_imu_link,-0.0870580524206,-0.21876449883,-0.469877928495,0.850751280785,0.0,0.0,0.0,0.0,0.0,0.0,0.0,0.0,0.0,-0.0105015179142,-0.00286674662493,0.00890131108463,0.01,0.0,0.0,0.0,0.01,0.0,0.0,0.0,0.01,-4.40590810776,-0.562623679638,-8.56976127625,0.01,0.0,0.0,0.0,0.01,0.0,0.0,0.0,0.01
1585296394967339910,8664,1585296394966388207,foot_imu_link,-0.0871585905552,-0.218737602234,-0.469852149487,0.850762188435,0.0,0.0,0.0,0.0,0.0,0.0,0.0,0.0,0.0,-0.0125439455733,-0.00185696035624,0.00880656763911,0.01,0.0,0.0,0.0,0.01,0.0,0.0,0.0,0.01,-4.37384080887,-0.549883723259,-8.55712890625,0.01,0.0,0.0,0.0,0.01,0.0,0.0,0.0,0.01
1585296394983860431,8665,1585296394983166511,foot_imu_link,-0.087248839438,-0.218675255775,-0.469823777676,0.850784659386,0.0,0.0,0.0,0.0,0.0,0.0,0.0,0.0,0.0,-0.0150007065386,0.000659153622109,0.00992669351399,0.01,0.0,0.0,0.0,0.01,0.0,0.0,0.0,0.01,-4.39097499847,-0.562636256218,-8.58806610107,0.01,0.0,0.0,0.0,0.01,0.0,0.0,0.0,0.01
1585296395000236271,8666,1585296394999224945,foot_imu_link,-0.0874179452658,-0.218539535999,-0.469775438309,0.850828826427,0.0,0.0,0.0,0.0,0.0,0.0,0.0,0.0,0.0,-0.024109300226,0.00472622038797,0.0167921707034,0.01,0.0,0.0,0.0,0.01,0.0,0.0,0.0,0.01,-4.34958028793,-0.615024924278,-8.59083080292,0.01,0.0,0.0,0.0,0.01,0.0,0.0,0.0,0.01
1585296395014783641,8667,1585296395014253336,foot_imu_link,-0.0875971764326,-0.218378141522,-0.469720572233,0.85088211298,0.0,0.0,0.0,0.0,0.0,0.0,0.0,0.0,0.0,-0.031768374145,0.00984512269497,0.0242634005845,0.01,0.0,0.0,0.0,0.01,0.0,0.0,0.0,0.01,-4.33473777771,-0.606492817402,-8.55657196045,0.01,0.0,0.0,0.0,0.01,0.0,0.0,0.0,0.01
1585296395030524230,8668,1585296395029804751,foot_imu_link,-0.0878268107772,-0.218162149191,-0.469650179148,0.850952684879,0.0,0.0,0.0,0.0,0.0,0.0,0.0,0.0,0.0,-0.0335522554815,0.009810292162,0.0250814631581,0.01,0.0,0.0,0.0,0.01,0.0,0.0,0.0,0.01,-4.38718795776,-0.522461533546,-8.55758666992,0.01,0.0,0.0,0.0,0.01,0.0,0.0,0.0,0.01
1585296395053350120,8669,1585296395051191739,foot_imu_link,-0.0881390944123,-0.217844545841,-0.469537913799,0.851063668728,0.0,0.0,0.0,0.0,0.0,0.0,0.0,0.0,0.0,-0.0378174893558,0.0128472596407,0.0277460813522,0.01,0.0,0.0,0.0,0.01,0.0,0.0,0.0,0.01,-4.3359375,-0.551691055298,-8.52610683441,0.01,0.0,0.0,0.0,0.01,0.0,0.0,0.0,0.01
1585296395067202523,8670,1585296395066612003,foot_imu_link,-0.0883365347981,-0.217627212405,-0.469461351633,0.851141095161,0.0,0.0,0.0,0.0,0.0,0.0,0.0,0.0,0.0,-0.029587469995,0.012832576409,0.0227489229292,0.01,0.0,0.0,0.0,0.01,0.0,0.0,0.0,0.01,-4.37898254395,-0.579975128174,-8.52169895172,0.01,0.0,0.0,0.0,0.01,0.0,0.0,0.0,0.01
1585296395083961825,8671,1585296395083248655,foot_imu_link,-0.0885086804628,-0.217457354069,-0.469395071268,0.851203203201,0.0,0.0,0.0,0.0,0.0,0.0,0.0,0.0,0.0,-0.0250540301204,0.00843440275639,0.0208428539336,0.01,0.0,0.0,0.0,0.01,0.0,0.0,0.0,0.01,-4.37688398361,-0.506831347942,-8.56040763855,0.01,0.0,0.0,0.0,0.01,0.0,0.0,0.0,0.01
1585296395114573587,8672,1585296395113939625,foot_imu_link,-0.088875643909,-0.217051073909,-0.469244629145,0.851351559162,0.0,0.0,0.0,0.0,0.0,0.0,0.0,0.0,0.0,-0.0255081951618,0.0162188299,0.0182878412306,0.01,0.0,0.0,0.0,0.01,0.0,0.0,0.0,0.01,-4.38771009445,-0.488559901714,-8.55549621582,0.01,0.0,0.0,0.0,0.01,0.0,0.0,0.0,0.01
1585296395129796806,8673,1585296395129251321,foot_imu_link,-0.08901296556,-0.216860607266,-0.46918797493,0.851417005062,0.0,0.0,0.0,0.0,0.0,0.0,0.0,0.0,0.0,-0.0219023190439,0.014680672437,0.0158351231366,0.01,0.0,0.0,0.0,0.01,0.0,0.0,0.0,0.01,-4.34709644318,-0.44134581089,-8.56840419769,0.01,0.0,0.0,0.0,0.01,0.0,0.0,0.0,0.01
1585296395167105016,8674,1585296395166224203,foot_imu_link,-0.089198961854,-0.21662196517,-0.46911907196,0.851496219635,0.0,0.0,0.0,0.0,0.0,0.0,0.0,0.0,0.0,-0.00477812904865,0.00378797668964,0.00282105244696,0.01,0.0,0.0,0.0,0.01,0.0,0.0,0.0,0.01,-4.3528842926,-0.447168797255,-8.59742069244,0.01,0.0,0.0,0.0,0.01,0.0,0.0,0.0,0.01
1585296395182277329,8675,1585296395181477870,foot_imu_link,-0.0892231985927,-0.216583698988,-0.469112575054,0.851507008076,0.0,0.0,0.0,0.0,0.0,0.0,0.0,0.0,0.0,-0.00271176826209,0.00418347772211,0.00199525151402,0.01,0.0,0.0,0.0,0.01,0.0,0.0,0.0,0.01,-4.35894489288,-0.518601298332,-8.57013130188,0.01,0.0,0.0,0.0,0.01,0.0,0.0,0.0,0.01
1585296395199037099,8676,1585296395198388314,foot_imu_link,-0.0892298445106,-0.216540291905,-0.469104379416,0.851521849632,0.0,0.0,0.0,0.0,0.0,0.0,0.0,0.0,0.0,-0.00303039792925,0.00556949013844,0.00175367901102,0.01,0.0,0.0,0.0,0.01,0.0,0.0,0.0,0.01,-4.34237957001,-0.499254286289,-8.61514949799,0.01,0.0,0.0,0.0,0.01,0.0,0.0,0.0,0.01
1585296395214812981,8677,1585296395213928000,foot_imu_link,-0.0892298668623,-0.216475829482,-0.469095408916,0.851543188095,0.0,0.0,0.0,0.0,0.0,0.0,0.0,0.0,0.0,-0.0039781248197,0.00434824731201,0.00370468758047,0.01,0.0,0.0,0.0,0.01,0.0,0.0,0.0,0.01,-4.34881448746,-0.512336075306,-8.59795570374,0.01,0.0,0.0,0.0,0.01,0.0,0.0,0.0,0.01
1585296395230227811,8678,1585296395229545173,foot_imu_link,-0.0892402976751,-0.216431349516,-0.469078332186,0.851562857628,0.0,0.0,0.0,0.0,0.0,0.0,0.0,0.0,0.0,-0.00332182459533,0.00368412770331,0.00522210588679,0.01,0.0,0.0,0.0,0.01,0.0,0.0,0.0,0.01,-4.33889436722,-0.496650069952,-8.57293319702,0.01,0.0,0.0,0.0,0.01,0.0,0.0,0.0,0.01
1585296395245330378,8679,1585296395244703502,foot_imu_link,-0.0892595499754,-0.216380223632,-0.46906965971,0.851578593254,0.0,0.0,0.0,0.0,0.0,0.0,0.0,0.0,0.0,-0.00476628076285,0.00730373477563,0.00322218658403,0.01,0.0,0.0,0.0,0.01,0.0,0.0,0.0,0.01,-4.37839317322,-0.472567796707,-8.60315608978,0.01,0.0,0.0,0.0,0.01,0.0,0.0,0.0,0.01
1585296395268220197,8680,1585296395266111567,foot_imu_link,-0.0892676189542,-0.216294616461,-0.469073206186,0.851597547531,0.0,0.0,0.0,0.0,0.0,0.0,0.0,0.0,0.0,-0.000790536403656,0.00716187153012,-0.000562381464988,0.01,0.0,0.0,0.0,0.01,0.0,0.0,0.0,0.01,-4.35058164597,-0.485699653625,-8.59714317322,0.01,0.0,0.0,0.0,0.01,0.0,0.0,0.0,0.01
1585296395283288223,8681,1585296395281431662,foot_imu_link,-0.0892506688833,-0.216253623366,-0.469091057777,0.851599872112,0.0,0.0,0.0,0.0,0.0,0.0,0.0,0.0,0.0,-0.000892378389835,0.00652692420408,-0.000923105981201,0.01,0.0,0.0,0.0,0.01,0.0,0.0,0.0,0.01,-4.38073730469,-0.494853526354,-8.59479618073,0.01,0.0,0.0,0.0,0.01,0.0,0.0,0.0,0.01
1585296395299373025,8682,1585296395298205703,foot_imu_link,-0.0892384573817,-0.216214552522,-0.469108521938,0.851601421833,0.0,0.0,0.0,0.0,0.0,0.0,0.0,0.0,0.0,1.46627426147e-05,0.00647092051804,-0.00222382554784,0.01,0.0,0.0,0.0,0.01,0.0,0.0,0.0,0.01,-4.36161851883,-0.491224229336,-8.56467056274,0.01,0.0,0.0,0.0,0.01,0.0,0.0,0.0,0.01
1585296395329800469,8683,1585296395329183562,foot_imu_link,-0.0892194285989,-0.216145187616,-0.469124883413,0.85161203146,0.0,0.0,0.0,0.0,0.0,0.0,0.0,0.0,0.0,-0.00515874568373,0.00235929107293,0.00271701999009,0.01,0.0,0.0,0.0,0.01,0.0,0.0,0.0,0.01,-4.36837863922,-0.499544799328,-8.59507465363,0.01,0.0,0.0,0.0,0.01,0.0,0.0,0.0,0.01
1585296395345364576,8684,1585296395344286670,foot_imu_link,-0.0892181769013,-0.216117694974,-0.469120383263,0.851621627808,0.0,0.0,0.0,0.0,0.0,0.0,0.0,0.0,0.0,-0.00100556388497,0.00433972897008,0.00218308297917,0.01,0.0,0.0,0.0,0.01,0.0,0.0,0.0,0.01,-4.3292798996,-0.484900474548,-8.59311294556,0.01,0.0,0.0,0.0,0.01,0.0,0.0,0.0,0.01
1585296395383275102,8685,1585296395381330828,foot_imu_link,-0.089259557426,-0.216065749526,-0.469126433134,0.851627111435,0.0,0.0,0.0,0.0,0.0,0.0,0.0,0.0,0.0,-0.0033694030717,0.00418343488127,0.00134355202317,0.01,0.0,0.0,0.0,0.01,0.0,0.0,0.0,0.01,-4.36034440994,-0.474941849709,-8.58681964874,0.01,0.0,0.0,0.0,0.01,0.0,0.0,0.0,0.01
1585296395397541148,8686,1585296395396301089,foot_imu_link,-0.0892718732357,-0.216025963426,-0.469132632017,0.851632475853,0.0,0.0,0.0,0.0,0.0,0.0,0.0,0.0,0.0,-0.00382151454687,0.00303025264293,0.000679538585246,0.01,0.0,0.0,0.0,0.01,0.0,0.0,0.0,0.01,-4.3465294838,-0.488778054714,-8.57123279572,0.01,0.0,0.0,0.0,0.01,0.0,0.0,0.0,0.01
1585296395415763003,8687,1585296395413422345,foot_imu_link,-0.0892663523555,-0.215963676572,-0.469127327204,0.851651847363,0.0,0.0,0.0,0.0,0.0,0.0,0.0,0.0,0.0,-0.00468768458813,0.0089108850807,0.000459609087557,0.01,0.0,0.0,0.0,0.01,0.0,0.0,0.0,0.01,-4.33527088165,-0.479862630367,-8.56350803375,0.01,0.0,0.0,0.0,0.01,0.0,0.0,0.0,0.01
1585296395430599424,8688,1585296395428990879,foot_imu_link,-0.0892868340015,-0.21587356925,-0.469130605459,0.851670742035,0.0,0.0,0.0,0.0,0.0,0.0,0.0,0.0,0.0,-0.00603241845965,0.00783423986286,0.00199980707839,0.01,0.0,0.0,0.0,0.01,0.0,0.0,0.0,0.01,-4.34627056122,-0.488174676895,-8.57113265991,0.01,0.0,0.0,0.0,0.01,0.0,0.0,0.0,0.01
1585296395444510505,8689,1585296395443979926,foot_imu_link,-0.0892993435264,-0.215805739164,-0.469128191471,0.851687908173,0.0,0.0,0.0,0.0,0.0,0.0,0.0,0.0,0.0,-0.00614263955504,0.00722495559603,0.00280474592,0.01,0.0,0.0,0.0,0.01,0.0,0.0,0.0,0.01,-4.32211351395,-0.487815439701,-8.56870651245,0.01,0.0,0.0,0.0,0.01,0.0,0.0,0.0,0.01
1585296395460144428,8690,1585296395459509345,foot_imu_link,-0.0893043652177,-0.215740084648,-0.469108372927,0.851714909077,0.0,0.0,0.0,0.0,0.0,0.0,0.0,0.0,0.0,-0.00482372846454,0.00312632648274,0.00467076897621,0.01,0.0,0.0,0.0,0.01,0.0,0.0,0.0,0.01,-4.35116386414,-0.495112091303,-8.57559299469,0.01,0.0,0.0,0.0,0.01,0.0,0.0,0.0,0.01
1585296395481682036,8691,1585296395481131159,foot_imu_link,-0.089332267642,-0.215667083859,-0.469078361988,0.85174703598,0.0,0.0,0.0,0.0,0.0,0.0,0.0,0.0,0.0,-0.00500566791743,0.00507850106806,0.00722204148769,0.01,0.0,0.0,0.0,0.01,0.0,0.0,0.0,0.01,-4.31065702438,-0.501994609833,-8.60846805573,0.01,0.0,0.0,0.0,0.01,0.0,0.0,0.0,0.01
1585296395497082096,8692,1585296395496177243,foot_imu_link,-0.0893561318517,-0.215611845255,-0.469065546989,0.851765573025,0.0,0.0,0.0,0.0,0.0,0.0,0.0,0.0,0.0,-0.00459171272814,0.00587038230151,0.00523117603734,0.01,0.0,0.0,0.0,0.01,0.0,0.0,0.0,0.01,-4.36160087585,-0.501326739788,-8.58173751831,0.01,0.0,0.0,0.0,0.01,0.0,0.0,0.0,0.01
1585296395513349800,8693,1585296395512796756,foot_imu_link,-0.0893489345908,-0.215549319983,-0.469036847353,0.851797997952,0.0,0.0,0.0,0.0,0.0,0.0,0.0,0.0,0.0,-0.00402080547065,0.00734904501587,0.00731560355052,0.01,0.0,0.0,0.0,0.01,0.0,0.0,0.0,0.01,-4.31664848328,-0.540795207024,-8.55861663818,0.01,0.0,0.0,0.0,0.01,0.0,0.0,0.0,0.01
1585296395546201983,8694,1585296395544327433,foot_imu_link,-0.0894033759832,-0.215374678373,-0.468942224979,0.851888477802,0.0,0.0,0.0,0.0,0.0,0.0,0.0,0.0,0.0,-0.00381890404969,0.00378131587058,0.00977445952594,0.01,0.0,0.0,0.0,0.01,0.0,0.0,0.0,0.01,-4.32012987137,-0.486211359501,-8.57876968384,0.01,0.0,0.0,0.0,0.01,0.0,0.0,0.0,0.01
1585296395560527753,8695,1585296395559399146,foot_imu_link,-0.0894205197692,-0.215312927961,-0.468889534473,0.851931333542,0.0,0.0,0.0,0.0,0.0,0.0,0.0,0.0,0.0,-0.00443347170949,0.00640752259642,0.011412053369,0.01,0.0,0.0,0.0,0.01,0.0,0.0,0.0,0.01,-4.30575084686,-0.491831302643,-8.60382175446,0.01,0.0,0.0,0.0,0.01,0.0,0.0,0.0,0.01
1585296395596715674,8696,1585296395596080732,foot_imu_link,-0.089550152421,-0.215236693621,-0.46872189641,0.852029204369,0.0,0.0,0.0,0.0,0.0,0.0,0.0,0.0,0.0,-0.00784106273204,-0.00405723974109,0.0161490850151,0.01,0.0,0.0,0.0,0.01,0.0,0.0,0.0,0.01,-4.3384141922,-0.508895993233,-8.62617301941,0.01,0.0,0.0,0.0,0.01,0.0,0.0,0.0,0.01
1585296395612600651,8697,1585296395611416462,foot_imu_link,-0.0896459817886,-0.215235427022,-0.468638271093,0.852065384388,0.0,0.0,0.0,0.0,0.0,0.0,0.0,0.0,0.0,-0.0102311391383,-0.00645891716704,0.0144189316779,0.01,0.0,0.0,0.0,0.01,0.0,0.0,0.0,0.01,-4.33319711685,-0.515717089176,-8.55906295776,0.01,0.0,0.0,0.0,0.01,0.0,0.0,0.0,0.01
1585296395628464802,8698,1585296395627959650,foot_imu_link,-0.0897534936666,-0.215221464634,-0.468552142382,0.852105021477,0.0,0.0,0.0,0.0,0.0,0.0,0.0,0.0,0.0,-0.0123366517946,-0.00345403002575,0.0151753462851,0.01,0.0,0.0,0.0,0.01,0.0,0.0,0.0,0.01,-4.33889198303,-0.484334886074,-8.56103610992,0.01,0.0,0.0,0.0,0.01,0.0,0.0,0.0,0.01
1585296395644458704,8699,1585296395644013896,foot_imu_link,-0.0899252220988,-0.215136736631,-0.468429803848,0.852175593376,0.0,0.0,0.0,0.0,0.0,0.0,0.0,0.0,0.0,-0.0191120561212,0.00154106016271,0.0186278373003,0.01,0.0,0.0,0.0,0.01,0.0,0.0,0.0,0.01,-4.33151102066,-0.461385726929,-8.56717681885,0.01,0.0,0.0,0.0,0.01,0.0,0.0,0.0,0.01
1585296395659958389,8700,1585296395658987033,foot_imu_link,-0.0900717899203,-0.215023547411,-0.468324124813,0.852246761322,0.0,0.0,0.0,0.0,0.0,0.0,0.0,0.0,0.0,-0.0210723076016,0.00680750841275,0.0226817317307,0.01,0.0,0.0,0.0,0.01,0.0,0.0,0.0,0.01,-4.34873342514,-0.456332266331,-8.56521701813,0.01,0.0,0.0,0.0,0.01,0.0,0.0,0.0,0.01
1585296395675384581,8701,1585296395674198779,foot_imu_link,-0.0902288928628,-0.214866355062,-0.468219459057,0.852327287197,0.0,0.0,0.0,0.0,0.0,0.0,0.0,0.0,0.0,-0.0245351362973,0.0104270773008,0.022215064615,0.01,0.0,0.0,0.0,0.01,0.0,0.0,0.0,0.01,-4.34083557129,-0.436186313629,-8.57412147522,0.01,0.0,0.0,0.0,0.01,0.0,0.0,0.0,0.01
1585296395696388130,8702,1585296395695796157,foot_imu_link,-0.0904214605689,-0.214645758271,-0.468072116375,0.852443397045,0.0,0.0,0.0,0.0,0.0,0.0,0.0,0.0,0.0,-0.0241195559502,0.0131041798741,0.0221888571978,0.01,0.0,0.0,0.0,0.01,0.0,0.0,0.0,0.01,-4.37234210968,-0.448845207691,-8.609998703,0.01,0.0,0.0,0.0,0.01,0.0,0.0,0.0,0.01
1585296395712068974,8703,1585296395711507828,foot_imu_link,-0.0905558988452,-0.214479416609,-0.467986524105,0.85251802206,0.0,0.0,0.0,0.0,0.0,0.0,0.0,0.0,0.0,-0.0199425853789,0.0109993163496,0.0167125668377,0.01,0.0,0.0,0.0,0.01,0.0,0.0,0.0,0.01,-4.3682141304,-0.425955832005,-8.57336902618,0.01,0.0,0.0,0.0,0.01,0.0,0.0,0.0,0.01
1585296395729113326,8704,1585296395727898734,foot_imu_link,-0.0906482562423,-0.214330166578,-0.467909216881,0.852588117123,0.0,0.0,0.0,0.0,0.0,0.0,0.0,0.0,0.0,-0.0149987284094,0.0122872320935,0.0138728711754,0.01,0.0,0.0,0.0,0.01,0.0,0.0,0.0,0.01,-4.35779571533,-0.42528706789,-8.58298110962,0.01,0.0,0.0,0.0,0.01,0.0,0.0,0.0,0.01
1585296395760118632,8705,1585296395759074773,foot_imu_link,-0.0907650068402,-0.214038461447,-0.467824220657,0.852695524693,0.0,0.0,0.0,0.0,0.0,0.0,0.0,0.0,0.0,-0.00880622491241,0.0133268870413,0.00540072098374,0.01,0.0,0.0,0.0,0.01,0.0,0.0,0.0,0.01,-4.3231921196,-0.430209547281,-8.60236930847,0.01,0.0,0.0,0.0,0.01,0.0,0.0,0.0,0.01
1585296395774828848,8706,1585296395774045401,foot_imu_link,-0.0907800346613,-0.213926747441,-0.467811733484,0.852728903294,0.0,0.0,0.0,0.0,0.0,0.0,0.0,0.0,0.0,-0.00765163637698,0.0127380322665,0.00398706784472,0.01,0.0,0.0,0.0,0.01,0.0,0.0,0.0,0.01,-4.36900901794,-0.420141667128,-8.57979011536,0.01,0.0,0.0,0.0,0.01,0.0,0.0,0.0,0.01
1585296395811698400,8707,1585296395811116039,foot_imu_link,-0.0908268541098,-0.213672026992,-0.467780977488,0.852804660797,0.0,0.0,0.0,0.0,0.0,0.0,0.0,0.0,0.0,-0.0111684529111,0.00958163291216,0.0046688336879,0.01,0.0,0.0,0.0,0.01,0.0,0.0,0.0,0.01,-4.29956245422,-0.444921791553,-8.64096069336,0.01,0.0,0.0,0.0,0.01,0.0,0.0,0.0,0.01
1585296395826770846,8708,1585296395826161376,foot_imu_link,-0.0908726453781,-0.213557645679,-0.467766731977,0.852836251259,0.0,0.0,0.0,0.0,0.0,0.0,0.0,0.0,0.0,-0.0112639060244,0.00973451137543,0.00556358555332,0.01,0.0,0.0,0.0,0.01,0.0,0.0,0.0,0.01,-4.31448173523,-0.386162400246,-8.6014289856,0.01,0.0,0.0,0.0,0.01,0.0,0.0,0.0,0.01
1585296395843358198,8709,1585296395842786087,foot_imu_link,-0.0909150764346,-0.213465034962,-0.467774868011,0.852850437164,0.0,0.0,0.0,0.0,0.0,0.0,0.0,0.0,0.0,-0.0093806385994,0.00882064271718,0.00278868991882,0.01,0.0,0.0,0.0,0.01,0.0,0.0,0.0,0.01,-4.30349159241,-0.435936063528,-8.61581611633,0.01,0.0,0.0,0.0,0.01,0.0,0.0,0.0,0.01
1585296395859488209,8710,1585296395858780701,foot_imu_link,-0.0909660533071,-0.213382914662,-0.467753469944,0.852877259254,0.0,0.0,0.0,0.0,0.0,0.0,0.0,0.0,0.0,-0.00693047046661,0.000866494723596,0.00486525148153,0.01,0.0,0.0,0.0,0.01,0.0,0.0,0.0,0.01,-4.30699539185,-0.419954717159,-8.59081459045,0.01,0.0,0.0,0.0,0.01,0.0,0.0,0.0,0.01
1585296395874889827,8711,1585296395874272858,foot_imu_link,-0.0910162329674,-0.213362798095,-0.467730849981,0.852889358997,0.0,0.0,0.0,0.0,0.0,0.0,0.0,0.0,0.0,-0.00735248625278,-0.00276874401607,0.00462599284947,0.01,0.0,0.0,0.0,0.01,0.0,0.0,0.0,0.01,-4.3347363472,-0.429629892111,-8.61499118805,0.01,0.0,0.0,0.0,0.01,0.0,0.0,0.0,0.01
1585296395890240775,8712,1585296395889276987,foot_imu_link,-0.0910686478019,-0.213342294097,-0.467717200518,0.852896392345,0.0,0.0,0.0,0.0,0.0,0.0,0.0,0.0,0.0,-0.00681394245476,0.000591729651205,0.00539867812768,0.01,0.0,0.0,0.0,0.01,0.0,0.0,0.0,0.01,-4.28966522217,-0.400155901909,-8.61875915527,0.01,0.0,0.0,0.0,0.01,0.0,0.0,0.0,0.01
1585296395911557067,8713,1585296395910802721,foot_imu_link,-0.0911586284637,-0.213295802474,-0.467683702707,0.852916777134,0.0,0.0,0.0,0.0,0.0,0.0,0.0,0.0,0.0,-0.00968248769641,0.000949947338086,0.00521627673879,0.01,0.0,0.0,0.0,0.01,0.0,0.0,0.0,0.01,-4.33960390091,-0.407001912594,-8.57388114929,0.01,0.0,0.0,0.0,0.01,0.0,0.0,0.0,0.01
1585296395926893737,8714,1585296395926134582,foot_imu_link,-0.091216750443,-0.213233932853,-0.467669934034,0.852933466434,0.0,0.0,0.0,0.0,0.0,0.0,0.0,0.0,0.0,-0.011725355871,0.00474754022434,0.00565525842831,0.01,0.0,0.0,0.0,0.01,0.0,0.0,0.0,0.01,-4.34588623047,-0.426173239946,-8.58972167969,0.01,0.0,0.0,0.0,0.01,0.0,0.0,0.0,0.01
1585296395943163850,8715,1585296395942648405,foot_imu_link,-0.0913012251258,-0.213141232729,-0.467640697956,0.852963685989,0.0,0.0,0.0,0.0,0.0,0.0,0.0,0.0,0.0,-0.0149807538837,0.00854414049536,0.00698495283723,0.01,0.0,0.0,0.0,0.01,0.0,0.0,0.0,0.01,-4.31798791885,-0.400891423225,-8.56091880798,0.01,0.0,0.0,0.0,0.01,0.0,0.0,0.0,0.01
1585296395974349648,8716,1585296395973590193,foot_imu_link,-0.0915167331696,-0.212754279375,-0.467607915401,0.853055179119,0.0,0.0,0.0,0.0,0.0,0.0,0.0,0.0,0.0,-0.0285140424967,0.0196603685617,0.0117885600775,0.01,0.0,0.0,0.0,0.01,0.0,0.0,0.0,0.01,-4.29955816269,-0.455159783363,-8.61371803284,0.01,0.0,0.0,0.0,0.01,0.0,0.0,0.0,0.01
1585296395989481983,8717,1585296395988984365,foot_imu_link,-0.0916586071253,-0.212519988418,-0.467598557472,0.853103518486,0.0,0.0,0.0,0.0,0.0,0.0,0.0,0.0,0.0,-0.0310459323227,0.0205638725311,0.0114360498264,0.01,0.0,0.0,0.0,0.01,0.0,0.0,0.0,0.01,-4.30762529373,-0.41630807519,-8.60825157166,0.01,0.0,0.0,0.0,0.01,0.0,0.0,0.0,0.01
1585296396026687921,8718,1585296396026043332,foot_imu_link,-0.0919818729162,-0.211943954229,-0.467560172081,0.853232979774,0.0,0.0,0.0,0.0,0.0,0.0,0.0,0.0,0.0,-0.0285948365927,0.0222312342376,0.00987293105572,0.01,0.0,0.0,0.0,0.01,0.0,0.0,0.0,0.01,-4.28485965729,-0.366687834263,-8.57595825195,0.01,0.0,0.0,0.0,0.01,0.0,0.0,0.0,0.01
1585296396041999263,8719,1585296396041356147,foot_imu_link,-0.092112198472,-0.211710825562,-0.467551887035,0.853281438351,0.0,0.0,0.0,0.0,0.0,0.0,0.0,0.0,0.0,-0.0260812118649,0.0176778063178,0.00892005581409,0.01,0.0,0.0,0.0,0.01,0.0,0.0,0.0,0.01,-4.32026338577,-0.384953886271,-8.64167976379,0.01,0.0,0.0,0.0,0.01,0.0,0.0,0.0,0.01
1585296396058465399,8720,1585296396057871144,foot_imu_link,-0.0922276899219,-0.211504980922,-0.467554092407,0.853318810463,0.0,0.0,0.0,0.0,0.0,0.0,0.0,0.0,0.0,-0.0251322835684,0.0155539941043,0.00863686203957,0.01,0.0,0.0,0.0,0.01,0.0,0.0,0.0,0.01,-4.2479596138,-0.372739076614,-8.58575630188,0.01,0.0,0.0,0.0,0.01,0.0,0.0,0.0,0.01
1585296396075192786,8721,1585296396074455039,foot_imu_link,-0.0923528000712,-0.211287692189,-0.467532217503,0.853371083736,0.0,0.0,0.0,0.0,0.0,0.0,0.0,0.0,0.0,-0.0183737389743,0.00753724062815,0.00987305305898,0.01,0.0,0.0,0.0,0.01,0.0,0.0,0.0,0.01,-4.26760101318,-0.386129915714,-8.60076999664,0.01,0.0,0.0,0.0,0.01,0.0,0.0,0.0,0.01
1585296396089412751,8722,1585296396088886036,foot_imu_link,-0.0924565717578,-0.211204320192,-0.467486351728,0.853405594826,0.0,0.0,0.0,0.0,0.0,0.0,0.0,0.0,0.0,-0.00598262809217,-0.00310074770823,0.0152395647019,0.01,0.0,0.0,0.0,0.01,0.0,0.0,0.0,0.01,-4.21811056137,-0.201683133841,-8.64473628998,0.01,0.0,0.0,0.0,0.01,0.0,0.0,0.0,0.01
1585296396105331538,8723,1585296396104247596,foot_imu_link,-0.0925747677684,-0.211063146591,-0.467479884624,0.853431224823,0.0,0.0,0.0,0.0,0.0,0.0,0.0,0.0,0.0,-0.0269758477807,0.000859026913531,0.00411434052512,0.01,0.0,0.0,0.0,0.01,0.0,0.0,0.0,0.01,-4.39067935944,-0.442488968372,-8.67444419861,0.01,0.0,0.0,0.0,0.01,0.0,0.0,0.0,0.01
1585296396127598361,8724,1585296396125733152,foot_imu_link,-0.0927394032478,-0.210924267769,-0.467445462942,0.853466570377,0.0,0.0,0.0,0.0,0.0,0.0,0.0,0.0,0.0,-0.0196375008672,0.00213117804378,0.0104599948972,0.01,0.0,0.0,0.0,0.01,0.0,0.0,0.0,0.01,-4.23247241974,-0.434318959713,-8.59562301636,0.01,0.0,0.0,0.0,0.01,0.0,0.0,0.0,0.01
1585296396141548862,8725,1585296396140990597,foot_imu_link,-0.0928880423307,-0.210833981633,-0.467404693365,0.853495061398,0.0,0.0,0.0,0.0,0.0,0.0,0.0,0.0,0.0,-0.0213550403714,-0.00232200976461,0.0122997770086,0.01,0.0,0.0,0.0,0.01,0.0,0.0,0.0,0.01,-4.2479019165,-0.37438338995,-8.61871910095,0.01,0.0,0.0,0.0,0.01,0.0,0.0,0.0,0.01
1585296396156999201,8726,1585296396156043028,foot_imu_link,-0.0930305719376,-0.210749730468,-0.467350006104,0.853530287743,0.0,0.0,0.0,0.0,0.0,0.0,0.0,0.0,0.0,-0.0174339786172,0.000257794104982,0.0111470986158,0.01,0.0,0.0,0.0,0.01,0.0,0.0,0.0,0.01,-4.26061344147,-0.380198597908,-8.59311485291,0.01,0.0,0.0,0.0,0.01,0.0,0.0,0.0,0.01
1585296396165672190,8727,1585296396164934440,foot_imu_link,-0.0931244045496,-0.210703700781,-0.467320352793,0.853547632694,0.0,0.0,0.0,0.0,0.0,0.0,0.0,0.0,0.0,-0.0203116722405,-0.00192931422498,0.0117874993011,0.01,0.0,0.0,0.0,0.01,0.0,0.0,0.0,0.01,-4.31549453735,-0.381078124046,-8.58722019196,0.01,0.0,0.0,0.0,0.01,0.0,0.0,0.0,0.01
1585296396189589491,8728,1585296396188670186,foot_imu_link,-0.0933798477054,-0.210611224174,-0.467215359211,0.853600025177,0.0,0.0,0.0,0.0,0.0,0.0,0.0,0.0,0.0,-0.0195392034948,-0.00409199204296,0.0138302352279,0.01,0.0,0.0,0.0,0.01,0.0,0.0,0.0,0.01,-4.299741745,-0.34007704258,-8.62553501129,0.01,0.0,0.0,0.0,0.01,0.0,0.0,0.0,0.01
1585296396204405050,8729,1585296396203858122,foot_imu_link,-0.0935447067022,-0.210572496057,-0.467148125172,0.853628337383,0.0,0.0,0.0,0.0,0.0,0.0,0.0,0.0,0.0,-0.0182627514005,-0.0069521535188,0.0162562951446,0.01,0.0,0.0,0.0,0.01,0.0,0.0,0.0,0.01,-4.31545972824,-0.363556146622,-8.60804653168,0.01,0.0,0.0,0.0,0.01,0.0,0.0,0.0,0.01
1585296396242122366,8730,1585296396241101892,foot_imu_link,-0.0939956381917,-0.210523292422,-0.466925323009,0.853712797165,0.0,0.0,0.0,0.0,0.0,0.0,0.0,0.0,0.0,-0.0216815881431,-0.0169080644846,0.0207432042807,0.01,0.0,0.0,0.0,0.01,0.0,0.0,0.0,0.01,-4.31875133514,-0.328209131956,-8.60841178894,0.01,0.0,0.0,0.0,0.01,0.0,0.0,0.0,0.01
1585296396256680806,8731,1585296396256003251,foot_imu_link,-0.0942179039121,-0.210537850857,-0.466828346252,0.853737652302,0.0,0.0,0.0,0.0,0.0,0.0,0.0,0.0,0.0,-0.0200319997966,-0.0140915792435,0.0190355498344,0.01,0.0,0.0,0.0,0.01,0.0,0.0,0.0,0.01,-4.29524183273,-0.33700427413,-8.60042381287,0.01,0.0,0.0,0.0,0.01,0.0,0.0,0.0,0.01
1585296396273460447,8732,1585296396272856665,foot_imu_link,-0.0944399237633,-0.210544317961,-0.466732233763,0.853764176369,0.0,0.0,0.0,0.0,0.0,0.0,0.0,0.0,0.0,-0.0216158591211,-0.0174517314881,0.0175101980567,0.01,0.0,0.0,0.0,0.01,0.0,0.0,0.0,0.01,-4.28766775131,-0.339780777693,-8.61790847778,0.01,0.0,0.0,0.0,0.01,0.0,0.0,0.0,0.01
1585296396289113392,8733,1585296396288541786,foot_imu_link,-0.0947409495711,-0.210609659553,-0.466608405113,0.853782355785,0.0,0.0,0.0,0.0,0.0,0.0,0.0,0.0,0.0,-0.0186997484416,-0.0232553258538,0.0163153931499,0.01,0.0,0.0,0.0,0.01,0.0,0.0,0.0,0.01,-4.28560304642,-0.349747180939,-8.61642551422,0.01,0.0,0.0,0.0,0.01,0.0,0.0,0.0,0.01
1585296396304616469,8734,1585296396303707504,foot_imu_link,-0.094970151782,-0.210671633482,-0.466498464346,0.853801727295,0.0,0.0,0.0,0.0,0.0,0.0,0.0,0.0,0.0,-0.0203375890851,-0.0234001353383,0.0200383923948,0.01,0.0,0.0,0.0,0.01,0.0,0.0,0.0,0.01,-4.28626346588,-0.334773212671,-8.64587879181,0.01,0.0,0.0,0.0,0.01,0.0,0.0,0.0,0.01
1585296396320196415,8735,1585296396319262295,foot_imu_link,-0.0951941534877,-0.210750609636,-0.466371119022,0.85382682085,0.0,0.0,0.0,0.0,0.0,0.0,0.0,0.0,0.0,-0.0151495104656,-0.0215006880462,0.0177879557014,0.01,0.0,0.0,0.0,0.01,0.0,0.0,0.0,0.01,-4.34043359756,-0.33547988534,-8.63724327087,0.01,0.0,0.0,0.0,0.01,0.0,0.0,0.0,0.01
1585296396342146014,8736,1585296396340699161,foot_imu_link,-0.0954645872116,-0.210871189833,-0.466216951609,0.853851079941,0.0,0.0,0.0,0.0,0.0,0.0,0.0,0.0,0.0,-0.0184644088149,-0.0260283015668,0.0175215993077,0.01,0.0,0.0,0.0,0.01,0.0,0.0,0.0,0.01,-4.32147598267,-0.366178512573,-8.61027812958,0.01,0.0,0.0,0.0,0.01,0.0,0.0,0.0,0.01
1585296396357068017,8737,1585296396355900485,foot_imu_link,-0.0957063511014,-0.21097689867,-0.466085851192,0.853869497776,0.0,0.0,0.0,0.0,0.0,0.0,0.0,0.0,0.0,-0.0199940688908,-0.0290832258761,0.019123904407,0.01,0.0,0.0,0.0,0.01,0.0,0.0,0.0,0.01,-4.35965585709,-0.338984966278,-8.60630702972,0.01,0.0,0.0,0.0,0.01,0.0,0.0,0.0,0.01
1585296396371917961,8738,1585296396371259763,foot_imu_link,-0.0959785953164,-0.21108867228,-0.465963125229,0.853878200054,0.0,0.0,0.0,0.0,0.0,0.0,0.0,0.0,0.0,-0.0237176511437,-0.0334802940488,0.0186645574868,0.01,0.0,0.0,0.0,0.01,0.0,0.0,0.0,0.01,-4.37331104279,-0.318789720535,-8.57661628723,0.01,0.0,0.0,0.0,0.01,0.0,0.0,0.0,0.01
1585296396388816328,8739,1585296396387991512,foot_imu_link,-0.0963034406304,-0.211243033409,-0.465811878443,0.853886067867,0.0,0.0,0.0,0.0,0.0,0.0,0.0,0.0,0.0,-0.0270871631801,-0.0398074649274,0.0226482190192,0.01,0.0,0.0,0.0,0.01,0.0,0.0,0.0,0.01,-4.34651088715,-0.372778475285,-8.60959815979,0.01,0.0,0.0,0.0,0.01,0.0,0.0,0.0,0.01
1585296396404711171,8740,1585296396403873520,foot_imu_link,-0.0967525467277,-0.211473450065,-0.46561357379,0.853886365891,0.0,0.0,0.0,0.0,0.0,0.0,0.0,0.0,0.0,-0.0243269056082,-0.0432165153325,0.0237149484456,0.01,0.0,0.0,0.0,0.01,0.0,0.0,0.0,0.01,-4.33402967453,-0.294413536787,-8.55393600464,0.01,0.0,0.0,0.0,0.01,0.0,0.0,0.0,0.01
1585296396420280360,8741,1585296396419151320,foot_imu_link,-0.0971205830574,-0.211710497737,-0.46544277668,0.853879034519,0.0,0.0,0.0,0.0,0.0,0.0,0.0,0.0,0.0,-0.0255433619022,-0.057879332453,0.0222074035555,0.01,0.0,0.0,0.0,0.01,0.0,0.0,0.0,0.01,-4.31957149506,-0.318562686443,-8.6235742569,0.01,0.0,0.0,0.0,0.01,0.0,0.0,0.0,0.01
1585296396456735087,8742,1585296396455801046,foot_imu_link,-0.098208591342,-0.212471708655,-0.46493768692,0.853840589523,0.0,0.0,0.0,0.0,0.0,0.0,0.0,0.0,0.0,-0.0349084213376,-0.0830532088876,0.0358818545938,0.01,0.0,0.0,0.0,0.01,0.0,0.0,0.0,0.01,-4.30377340317,-0.406557887793,-8.61446285248,0.01,0.0,0.0,0.0,0.01,0.0,0.0,0.0,0.01
1585296396473265827,8743,1585296396471162296,foot_imu_link,-0.0988178402185,-0.212919339538,-0.464610487223,0.853836894035,0.0,0.0,0.0,0.0,0.0,0.0,0.0,0.0,0.0,-0.0370132476091,-0.100511066616,0.049992442131,0.01,0.0,0.0,0.0,0.01,0.0,0.0,0.0,0.01,-4.34870433807,-0.32830452919,-8.60310649872,0.01,0.0,0.0,0.0,0.01,0.0,0.0,0.0,0.01
1585296396480831998,8744,1585296396479748351,foot_imu_link,-0.0993056744337,-0.213281676173,-0.46434879303,0.853832304478,0.0,0.0,0.0,0.0,0.0,0.0,0.0,0.0,0.0,-0.0433580242097,-0.117315523326,0.054921541363,0.01,0.0,0.0,0.0,0.01,0.0,0.0,0.0,0.01,-4.36695575714,-0.362120985985,-8.65446662903,0.01,0.0,0.0,0.0,0.01,0.0,0.0,0.0,0.01
1585296396504176716,8745,1585296396503542266,foot_imu_link,-0.100793063641,-0.214319080114,-0.463571488857,0.853820562363,0.0,0.0,0.0,0.0,0.0,0.0,0.0,0.0,0.0,-0.0640951544046,-0.143267124891,0.0691183805466,0.01,0.0,0.0,0.0,0.01,0.0,0.0,0.0,0.01,-4.40661334991,-0.31315600872,-8.5466299057,0.01,0.0,0.0,0.0,0.01,0.0,0.0,0.0,0.01
1585296396519482959,8746,1585296396518839388,foot_imu_link,-0.101839222014,-0.214991316199,-0.463061839342,0.853804051876,0.0,0.0,0.0,0.0,0.0,0.0,0.0,0.0,0.0,-0.0697764158249,-0.15577442944,0.0737742185593,0.01,0.0,0.0,0.0,0.01,0.0,0.0,0.0,0.01,-4.4252705574,-0.315656423569,-8.6235294342,0.01,0.0,0.0,0.0,0.01,0.0,0.0,0.0,0.01
1585296396535021375,8747,1585296396533947340,foot_imu_link,-0.103042952716,-0.215723082423,-0.462502747774,0.853778064251,0.0,0.0,0.0,0.0,0.0,0.0,0.0,0.0,0.0,-0.0898688435555,-0.174806237221,0.085647366941,0.01,0.0,0.0,0.0,0.01,0.0,0.0,0.0,0.01,-4.42794179916,-0.368889629841,-8.61993217468,0.01,0.0,0.0,0.0,0.01,0.0,0.0,0.0,0.01
1585296396557547845,8748,1585296396555624144,foot_imu_link,-0.105024799705,-0.216802299023,-0.461588025093,0.853758215904,0.0,0.0,0.0,0.0,0.0,0.0,0.0,0.0,0.0,-0.114670418203,-0.209169089794,0.117439471185,0.01,0.0,0.0,0.0,0.01,0.0,0.0,0.0,0.01,-4.46442508698,-0.477949202061,-8.63014316559,0.01,0.0,0.0,0.0,0.01,0.0,0.0,0.0,0.01
1585296396572616016,8749,1585296396570948885,foot_imu_link,-0.106844969094,-0.2177105546,-0.460666328669,0.853799104691,0.0,0.0,0.0,0.0,0.0,0.0,0.0,0.0,0.0,-0.137958601117,-0.239344403148,0.151497408748,0.01,0.0,0.0,0.0,0.01,0.0,0.0,0.0,0.01,-4.43261957169,-0.431775033474,-8.63553237915,0.01,0.0,0.0,0.0,0.01,0.0,0.0,0.0,0.01
1585296396586857501,8750,1585296396586081422,foot_imu_link,-0.108983360231,-0.218762531877,-0.459526002407,0.853874385357,0.0,0.0,0.0,0.0,0.0,0.0,0.0,0.0,0.0,-0.155128642917,-0.280357718468,0.186031967402,0.01,0.0,0.0,0.0,0.01,0.0,0.0,0.0,0.01,-4.45408821106,-0.285950750113,-8.62793064117,0.01,0.0,0.0,0.0,0.01,0.0,0.0,0.0,0.01
1585296396605233508,8751,1585296396602887795,foot_imu_link,-0.111387319863,-0.220029786229,-0.458130508661,0.853988468647,0.0,0.0,0.0,0.0,0.0,0.0,0.0,0.0,0.0,-0.160840064287,-0.326633125544,0.222221359611,0.01,0.0,0.0,0.0,0.01,0.0,0.0,0.0,0.01,-4.40971899033,-0.275359392166,-8.5777759552,0.01,0.0,0.0,0.0,0.01,0.0,0.0,0.0,0.01
1585296396619212617,8752,1585296396618692260,foot_imu_link,-0.114951699972,-0.2223598212,-0.45554548502,0.854295432568,0.0,0.0,0.0,0.0,0.0,0.0,0.0,0.0,0.0,-0.122980602086,-0.434171944857,0.332029908895,0.01,0.0,0.0,0.0,0.01,0.0,0.0,0.0,0.01,-4.33215045929,0.035831771791,-8.6990070343,0.01,0.0,0.0,0.0,0.01,0.0,0.0,0.0,0.01
1585296396634173123,8753,1585296396633578139,foot_imu_link,-0.117908738554,-0.22511151433,-0.452396005392,0.854845106602,0.0,0.0,0.0,0.0,0.0,0.0,0.0,0.0,0.0,-0.0544754341245,-0.571451425552,0.47055208683,0.01,0.0,0.0,0.0,0.01,0.0,0.0,0.0,0.01,-4.52170848846,-0.15606983006,-8.81404685974,0.01,0.0,0.0,0.0,0.01,0.0,0.0,0.0,0.01
1585296396641641741,8754,1585296396641081393,foot_imu_link,-0.120034940541,-0.227306678891,-0.449828177691,0.855323314667,0.0,0.0,0.0,0.0,0.0,0.0,0.0,0.0,0.0,-0.031753372401,-0.612247109413,0.530512750149,0.01,0.0,0.0,0.0,0.01,0.0,0.0,0.0,0.01,-5.08583927155,0.446235269308,-8.77102088928,0.01,0.0,0.0,0.0,0.01,0.0,0.0,0.0,0.01
1585296396671840720,8755,1585296396670699664,foot_imu_link,-0.123767003417,-0.233091011643,-0.441746741533,0.857443928719,0.0,0.0,0.0,0.0,0.0,0.0,0.0,0.0,0.0,0.212333828211,-0.542387664318,0.743524968624,0.01,0.0,0.0,0.0,0.01,0.0,0.0,0.0,0.01,-4.64919090271,0.465447932482,-8.85907363892,0.01,0.0,0.0,0.0,0.01,0.0,0.0,0.0,0.01
1585296396686554782,8756,1585296396685805903,foot_imu_link,-0.124621115625,-0.236533179879,-0.435110539198,0.8597676754,0.0,0.0,0.0,0.0,0.0,0.0,0.0,0.0,0.0,0.396155506372,-0.447720587254,0.925085663795,0.01,0.0,0.0,0.0,0.01,0.0,0.0,0.0,0.01,-4.67834806442,-0.426446974277,-9.12532711029,0.01,0.0,0.0,0.0,0.01,0.0,0.0,0.0,0.01
1585296396704354247,8757,1585296396702616430,foot_imu_link,-0.124470427632,-0.239457830787,-0.427152097225,0.862964749336,0.0,0.0,0.0,0.0,0.0,0.0,0.0,0.0,0.0,0.52983379364,-0.302588999271,1.09729015827,0.01,0.0,0.0,0.0,0.01,0.0,0.0,0.0,0.01,-4.56896877289,-0.758898496628,-9.43212890625,0.01,0.0,0.0,0.0,0.01,0.0,0.0,0.0,0.01
1585296396720041881,8758,1585296396718778398,foot_imu_link,-0.121521309018,-0.241779923439,-0.415539860725,0.868390321732,0.0,0.0,0.0,0.0,0.0,0.0,0.0,0.0,0.0,0.867475509644,0.101177729666,1.06731891632,0.01,0.0,0.0,0.0,0.01,0.0,0.0,0.0,0.01,-5.08403015137,-2.79110217094,-11.5124397278,0.01,0.0,0.0,0.0,0.01,0.0,0.0,0.0,0.01
1585296396734494150,8759,1585296396733648898,foot_imu_link,-0.1166658476,-0.240832701325,-0.408673912287,0.872567713261,0.0,0.0,0.0,0.0,0.0,0.0,0.0,0.0,0.0,0.651005923748,0.52361369133,0.798947811127,0.01,0.0,0.0,0.0,0.01,0.0,0.0,0.0,0.01,-4.06679344177,-5.80551767349,-11.0818767548,0.01,0.0,0.0,0.0,0.01,0.0,0.0,0.0,0.01
1585296396749715056,8760,1585296396748839367,foot_imu_link,-0.114117391407,-0.237011954188,-0.40439543128,0.875937759876,0.0,0.0,0.0,0.0,0.0,0.0,0.0,0.0,0.0,0.12361395359,0.644910633564,0.572435438633,0.01,0.0,0.0,0.0,0.01,0.0,0.0,0.0,0.01,-2.2882027626,-4.31325101852,-9.18842697144,0.01,0.0,0.0,0.0,0.01,0.0,0.0,0.0,0.01
1585296396771381967,8761,1585296396770614081,foot_imu_link,-0.111542247236,-0.231751099229,-0.402121245861,0.878719687462,0.0,0.0,0.0,0.0,0.0,0.0,0.0,0.0,0.0,0.152214586735,0.565149128437,0.13885872066,0.01,0.0,0.0,0.0,0.01,0.0,0.0,0.0,0.01,-1.53763568401,-1.91023397446,-8.02680492401,0.01,0.0,0.0,0.0,0.01,0.0,0.0,0.0,0.01
1585296396787331694,8762,1585296396785782034,foot_imu_link,-0.108497679234,-0.228915587068,-0.402513325214,0.879664182663,0.0,0.0,0.0,0.0,0.0,0.0,0.0,0.0,0.0,0.217314392328,0.522847473621,-0.131492108107,0.01,0.0,0.0,0.0,0.01,0.0,0.0,0.0,0.01,-1.84955155849,-1.77990925312,-8.49582576752,0.01,0.0,0.0,0.0,0.01,0.0,0.0,0.0,0.01
1585296396801947482,8763,1585296396800955081,foot_imu_link,-0.10514138639,-0.226243510842,-0.404364228249,0.879914104939,0.0,0.0,0.0,0.0,0.0,0.0,0.0,0.0,0.0,0.186752349138,0.532238423824,-0.323666393757,0.01,0.0,0.0,0.0,0.01,0.0,0.0,0.0,0.01,-2.21193242073,-1.36617982388,-8.8937959671,0.01,0.0,0.0,0.0,0.01,0.0,0.0,0.0,0.01
1585296396818520676,8764,1585296396817669181,foot_imu_link,-0.101642332971,-0.223439693451,-0.407339245081,0.879669487476,0.0,0.0,0.0,0.0,0.0,0.0,0.0,0.0,0.0,0.166197508574,0.560069739819,-0.464929491282,0.01,0.0,0.0,0.0,0.01,0.0,0.0,0.0,0.01,-2.19002103806,-0.859604597092,-8.71727085114,0.01,0.0,0.0,0.0,0.01,0.0,0.0,0.0,0.01
1585296396834774653,8765,1585296396833888751,foot_imu_link,-0.0966639965773,-0.219912394881,-0.412514775991,0.878707110882,0.0,0.0,0.0,0.0,0.0,0.0,0.0,0.0,0.0,0.182356387377,0.529258549213,-0.623001992702,0.01,0.0,0.0,0.0,0.01,0.0,0.0,0.0,0.01,-2.4154381752,-0.597745060921,-8.6420841217,0.01,0.0,0.0,0.0,0.01,0.0,0.0,0.0,0.01
1585296396849530831,8766,1585296396848678873,foot_imu_link,-0.092615455389,-0.217470616102,-0.417338311672,0.877472281456,0.0,0.0,0.0,0.0,0.0,0.0,0.0,0.0,0.0,0.182661995292,0.543164074421,-0.761780560017,0.01,0.0,0.0,0.0,0.01,0.0,0.0,0.0,0.01,-3.02429962158,-0.854828238487,-9.01837158203,0.01,0.0,0.0,0.0,0.01,0.0,0.0,0.0,0.01
1585296396864743865,8767,1585296396864024478,foot_imu_link,-0.088416673243,-0.214760109782,-0.423192888498,0.875767290592,0.0,0.0,0.0,0.0,0.0,0.0,0.0,0.0,0.0,0.133588582277,0.584480583668,-0.911216497421,0.01,0.0,0.0,0.0,0.01,0.0,0.0,0.0,0.01,-3.23790669441,-1.10637378693,-8.95924377441,0.01,0.0,0.0,0.0,0.01,0.0,0.0,0.0,0.01
1585296396886332003,8768,1585296396885638578,foot_imu_link,-0.0830139443278,-0.211034148932,-0.432527929544,0.872635543346,0.0,0.0,0.0,0.0,0.0,0.0,0.0,0.0,0.0,0.0772845596075,0.556659042835,-1.0991102457,0.01,0.0,0.0,0.0,0.01,0.0,0.0,0.0,0.01,-3.52917909622,-1.02683997154,-8.46106338501,0.01,0.0,0.0,0.0,0.01,0.0,0.0,0.0,0.01
1585296396903332373,8769,1585296396901433910,foot_imu_link,-0.0788189545274,-0.208504065871,-0.440501451492,0.869639098644,0.0,0.0,0.0,0.0,0.0,0.0,0.0,0.0,0.0,0.0932047441602,0.533349514008,-1.22971010208,0.01,0.0,0.0,0.0,0.01,0.0,0.0,0.0,0.01,-3.93855524063,-0.964639663696,-8.39890098572,0.01,0.0,0.0,0.0,0.01,0.0,0.0,0.0,0.01
1585296396918495094,8770,1585296396917531676,foot_imu_link,-0.0743715018034,-0.206271857023,-0.449147284031,0.86613368988,0.0,0.0,0.0,0.0,0.0,0.0,0.0,0.0,0.0,0.116932064295,0.499292224646,-1.33780694008,0.01,0.0,0.0,0.0,0.01,0.0,0.0,0.0,0.01,-4.085521698,-0.523967444897,-8.11369228363,0.01,0.0,0.0,0.0,0.01,0.0,0.0,0.0,0.01
1585296396934152911,8771,1585296396933495279,foot_imu_link,-0.068110615015,-0.204073980451,-0.461118191481,0.860862731934,0.0,0.0,0.0,0.0,0.0,0.0,0.0,0.0,0.0,0.186968311667,0.426974266768,-1.39299178123,0.01,0.0,0.0,0.0,0.01,0.0,0.0,0.0,0.01,-4.50035810471,0.519707083702,-7.99101066589,0.01,0.0,0.0,0.0,0.01,0.0,0.0,0.0,0.01
1585296396949806349,8772,1585296396948944638,foot_imu_link,-0.0634877234697,-0.203000888228,-0.469787478447,0.856772780418,0.0,0.0,0.0,0.0,0.0,0.0,0.0,0.0,0.0,0.189972579479,0.342222750187,-1.33285951614,0.01,0.0,0.0,0.0,0.01,0.0,0.0,0.0,0.01,-4.62210035324,0.868999242783,-7.76568889618,0.01,0.0,0.0,0.0,0.01,0.0,0.0,0.0,0.01
1585296396964550065,8773,1585296396963881808,foot_imu_link,-0.0597114339471,-0.20263543725,-0.477523416281,0.852845191956,0.0,0.0,0.0,0.0,0.0,0.0,0.0,0.0,0.0,0.148900210857,0.18964163959,-1.15540599823,0.01,0.0,0.0,0.0,0.01,0.0,0.0,0.0,0.01,-4.39191818237,1.33876287937,-7.16107749939,0.01,0.0,0.0,0.0,0.01,0.0,0.0,0.0,0.01
1585296396985932450,8774,1585296396985383786,foot_imu_link,-0.0583387389779,-0.203774273396,-0.485187768936,0.848330974579,0.0,0.0,0.0,0.0,0.0,0.0,0.0,0.0,0.0,-0.349092513323,-0.436694502831,-0.65532374382,0.01,0.0,0.0,0.0,0.01,0.0,0.0,0.0,0.01,-6.14507198334,-1.39235591888,-3.85084676743,0.01,0.0,0.0,0.0,0.01,0.0,0.0,0.0,0.01
1585296397001145080,8775,1585296397000607922,foot_imu_link,-0.0673322305083,-0.20748052001,-0.488323122263,0.844960808754,0.0,0.0,0.0,0.0,0.0,0.0,0.0,0.0,0.0,-0.932605803013,-1.37668061256,-0.262109279633,0.01,0.0,0.0,0.0,0.01,0.0,0.0,0.0,0.01,-8.22476196289,5.19587182999,-0.707707285881,0.01,0.0,0.0,0.0,0.01,0.0,0.0,0.0,0.01
1585296397016590091,8776,1585296397015825762,foot_imu_link,-0.082699149847,-0.212858587503,-0.48822581768,0.842310905457,0.0,0.0,0.0,0.0,0.0,0.0,0.0,0.0,0.0,-1.8866225481,-1.71424818039,0.647541880608,0.01,0.0,0.0,0.0,0.01,0.0,0.0,0.0,0.01,-16.7808933258,5.65539264679,-7.42410373688,0.01,0.0,0.0,0.0,0.01,0.0,0.0,0.0,0.01
1585296397033398892,8777,1585296397032591670,foot_imu_link,-0.0956667512655,-0.213645905256,-0.484635472298,0.842811882496,0.0,0.0,0.0,0.0,0.0,0.0,0.0,0.0,0.0,-0.870336055756,-0.495378553867,0.646530926228,0.01,0.0,0.0,0.0,0.01,0.0,0.0,0.0,0.01,-15.0551204681,1.2339990139,-13.6520299911,0.01,0.0,0.0,0.0,0.01,0.0,0.0,0.0,0.01
1585296397049309870,8778,1585296397048603135,foot_imu_link,-0.0970480814576,-0.211055114865,-0.484045982361,0.843645036221,0.0,0.0,0.0,0.0,0.0,0.0,0.0,0.0,0.0,0.0176823958755,0.266095668077,-0.0717297419906,0.01,0.0,0.0,0.0,0.01,0.0,0.0,0.0,0.01,-3.18586063385,1.22113037109,-7.81405735016,0.01,0.0,0.0,0.0,0.01,0.0,0.0,0.0,0.01
1585296397064943692,8779,1585296397063934301,foot_imu_link,-0.0969847217202,-0.210562154651,-0.484405964613,0.843568861485,0.0,0.0,0.0,0.0,0.0,0.0,0.0,0.0,0.0,-0.0514375530183,-0.0174744259566,0.00615226710215,0.01,0.0,0.0,0.0,0.01,0.0,0.0,0.0,0.01,-1.86934542656,1.30559325218,-8.30569839478,0.01,0.0,0.0,0.0,0.01,0.0,0.0,0.0,0.01
1585296397079670186,8780,1585296397078778365,foot_imu_link,-0.097696647048,-0.210635617375,-0.483916014433,0.843749582767,0.0,0.0,0.0,0.0,0.0,0.0,0.0,0.0,0.0,-0.0700532644987,-0.0614953935146,0.114025563002,0.01,0.0,0.0,0.0,0.01,0.0,0.0,0.0,0.01,-3.85975790024,-1.28803229332,-8.91389846802,0.01,0.0,0.0,0.0,0.01,0.0,0.0,0.0,0.01
1585296397101186448,8781,1585296397100550875,foot_imu_link,-0.0993491262197,-0.210513263941,-0.483310371637,0.843934297562,0.0,0.0,0.0,0.0,0.0,0.0,0.0,0.0,0.0,-0.106562390924,-0.0547497272491,0.073046579957,0.01,0.0,0.0,0.0,0.01,0.0,0.0,0.0,0.01,-5.17686271667,-1.35100162029,-9.40557575226,0.01,0.0,0.0,0.0,0.01,0.0,0.0,0.0,0.01
1585296397116558308,8782,1585296397115764824,foot_imu_link,-0.0992991179228,-0.21031537652,-0.482988119125,0.844173967838,0.0,0.0,0.0,0.0,0.0,0.0,0.0,0.0,0.0,0.0568510219455,0.0625430494547,0.052374985069,0.01,0.0,0.0,0.0,0.01,0.0,0.0,0.0,0.01,-5.01412677765,0.624027907848,-8.88938331604,0.01,0.0,0.0,0.0,0.01,0.0,0.0,0.0,0.01
1585296397133170455,8783,1585296397132396333,foot_imu_link,-0.0988822951913,-0.210192799568,-0.482674002647,0.844433009624,0.0,0.0,0.0,0.0,0.0,0.0,0.0,0.0,0.0,0.0482493825257,0.0363809168339,0.0314617827535,0.01,0.0,0.0,0.0,0.01,0.0,0.0,0.0,0.01,-4.36412906647,-0.780532538891,-8.73756027222,0.01,0.0,0.0,0.0,0.01,0.0,0.0,0.0,0.01
1585296397164198729,8784,1585296397163534047,foot_imu_link,-0.0981450155377,-0.209823638201,-0.482035368681,0.844975471497,0.0,0.0,0.0,0.0,0.0,0.0,0.0,0.0,0.0,0.0260499529541,0.0460419096053,0.0460550189018,0.01,0.0,0.0,0.0,0.01,0.0,0.0,0.0,0.01,-4.67410469055,-0.448202908039,-8.76177692413,0.01,0.0,0.0,0.0,0.01,0.0,0.0,0.0,0.01
